File: TS-82-25-08-30-800_2024-08-22_C01.txt
mode	error	time/s	<Ewe/V>
3	1	0.5	-0.422753
3	0	2.5	-0.422965
3	0	4.5	-0.423161
3	0	6.5	-0.42335
3	0	8.5	-0.423567
3	0	10.5	-0.423979
3	0	12.5	-0.424482
3	0	14.5	-0.425035
3	0	16.5	-0.425619
3	0	18.5	-0.426219
3	0	20.5	-0.426839
3	0	22.5	-0.427462
3	0	24.5	-0.428086
3	0	26.5	-0.428714
3	0	28.5	-0.429342
3	0	30.5	-0.429961
3	0	32.5	-0.430582
3	0	34.5	-0.431215
3	0	36.5	-0.431829
3	0	38.5	-0.432444
3	0	40.5	-0.433048
3	0	42.5	-0.433638
3	0	44.5	-0.431922
3	0	46.5	-0.432975
3	0	48.5	-0.433642
3	0	50.5	-0.434008
3	0	52.5	-0.433852
3	0	54.5	-0.434541
3	0	56.5	-0.435091
3	0	58.5	-0.435645
3	0	60.5	-0.436183
3	0	62.5	-0.436703
3	0	64.5	-0.437207
3	0	66.5	-0.437697
3	0	68.5	-0.438164
3	0	70.5	-0.438616
3	0	72.5	-0.439069
3	0	74.5	-0.439497
3	0	76.5	-0.439929
3	0	78.5	-0.440351
3	0	80.5	-0.440762
3	0	82.5	-0.441168
3	0	84.5	-0.441558
3	0	86.5	-0.441936
3	0	88.5	-0.442307
3	0	90.5	-0.442671
3	0	92.5	-0.443019
3	0	94.5	-0.443364
3	0	96.5	-0.443694
3	0	98.5	-0.444027
3	0	100.5	-0.444343
3	0	102.5	-0.444649
3	0	104.5	-0.444942
3	0	106.5	-0.44523
3	0	108.5	-0.445502
3	0	110.5	-0.445781
3	0	112.5	-0.446042
3	0	114.5	-0.446301
3	0	116.5	-0.446545
3	0	118.5	-0.446784
3	0	120.5	-0.44703
3	0	122.5	-0.447246
3	0	124.5	-0.44749
3	0	126.5	-0.44772
3	0	128.5	-0.447941
3	0	130.5	-0.44816
3	0	132.5	-0.448377
3	0	134.5	-0.44858
3	0	136.5	-0.448774
3	0	138.5	-0.448963
3	0	140.5	-0.449155
3	0	142.5	-0.449353
3	0	144.5	-0.449527
3	0	146.5	-0.44971
3	0	148.5	-0.449886
3	0	150.5	-0.450047
3	0	152.5	-0.450207
3	0	154.5	-0.450374
3	0	156.5	-0.450525
3	0	158.5	-0.450682
3	0	160.5	-0.450838
3	0	162.5	-0.450984
3	0	164.5	-0.45113
3	0	166.5	-0.451282
3	0	168.5	-0.451424
3	0	170.5	-0.451566
3	0	172.5	-0.451681
3	0	174.5	-0.451793
3	0	176.5	-0.451926
3	0	178.5	-0.452046
3	0	180.5	-0.452171
3	0	182.5	-0.452289
3	0	184.5	-0.452396
3	0	186.5	-0.452513
3	0	188.5	-0.452634
3	0	190.5	-0.452748
3	0	192.5	-0.452853
3	0	194.5	-0.452959
3	0	196.5	-0.453064
3	0	198.5	-0.453164
3	0	200.5	-0.453262
3	0	202.5	-0.453363
3	0	204.5	-0.453458
3	0	206.5	-0.453534
3	0	208.5	-0.453634
3	0	210.5	-0.453727
3	0	212.5	-0.453825
3	0	214.5	-0.453909
3	0	216.5	-0.453999
3	0	218.5	-0.454083
3	0	220.5	-0.454164
3	0	222.5	-0.454245
3	0	224.5	-0.454328
3	0	226.5	-0.454399
3	0	228.5	-0.454475
3	0	230.5	-0.454555
3	0	232.5	-0.454623
3	0	234.5	-0.4547
3	0	236.5	-0.45477
3	0	238.5	-0.454843
3	0	240.5	-0.454917
3	0	242.5	-0.454988
3	0	244.5	-0.455059
3	0	246.5	-0.45512
3	0	248.5	-0.455177
3	0	250.5	-0.455238
3	0	252.5	-0.455297
3	0	254.5	-0.45533
3	0	256.5	-0.455392
3	0	258.5	-0.455441
3	0	260.5	-0.4555
3	0	262.5	-0.455554
3	0	264.5	-0.455602
3	0	266.5	-0.455657
3	0	268.5	-0.455708
3	0	270.5	-0.455766
3	0	272.5	-0.455817
3	0	274.5	-0.455862
3	0	276.5	-0.455907
3	0	278.5	-0.45595
3	0	280.5	-0.455998
3	0	282.5	-0.456042
3	0	284.5	-0.456095
3	0	286.5	-0.456135
3	0	288.5	-0.456181
3	0	290.5	-0.456226
3	0	292.5	-0.455815
3	0	294.5	-0.45547
3	0	296.5	-0.455084
3	0	298.5	-0.454975
3	0	300.5	-0.454963
3	0	302.5	-0.454984
3	0	304.5	-0.455019
3	0	306.5	-0.455065
3	0	308.5	-0.455122
3	0	310.5	-0.455179
3	0	312.5	-0.455233
3	0	314.5	-0.455287
3	0	316.5	-0.455325
3	0	318.5	-0.455362
3	0	320.5	-0.455403
3	0	322.5	-0.455444
3	0	324.5	-0.455481
3	0	326.5	-0.455522
3	0	328.5	-0.455574
3	0	330.5	-0.455625
3	0	332.5	-0.455672
3	0	334.5	-0.455716
3	0	336.5	-0.455754
3	0	338.5	-0.455798
3	0	340.5	-0.455843
3	0	342.5	-0.455881
3	0	344.5	-0.45592
3	0	346.5	-0.455963
3	0	348.5	-0.456009
3	0	350.5	-0.456048
3	0	352.5	-0.45609
3	0	354.5	-0.456135
3	0	356.5	-0.456185
3	0	358.5	-0.456227
3	0	360.5	-0.456272
3	0	362.5	-0.456309
3	0	364.5	-0.456357
3	0	366.5	-0.456399
3	0	368.5	-0.456447
3	0	370.5	-0.456489
3	0	372.5	-0.456533
3	0	374.5	-0.45657
3	0	376.5	-0.456642
3	0	378.5	-0.456653
3	0	380.5	-0.456706
3	0	382.5	-0.45675
3	0	384.5	-0.456786
3	0	386.5	-0.456842
3	0	388.5	-0.456889
3	0	390.5	-0.456931
3	0	392.5	-0.456967
3	0	394.5	-0.457017
3	0	396.5	-0.457059
3	0	398.5	-0.457109
3	0	400.5	-0.457158
3	0	402.5	-0.457202
3	0	404.5	-0.457242
3	0	406.5	-0.457284
3	0	408.5	-0.457319
3	0	410.5	-0.457358
3	0	412.5	-0.457394
3	0	414.5	-0.457425
3	0	416.5	-0.457445
3	0	418.5	-0.457472
3	0	420.5	-0.457507
3	0	422.5	-0.45754
3	0	424.5	-0.457575
3	0	426.5	-0.4576
3	0	428.5	-0.457625
3	0	430.5	-0.457643
3	0	432.5	-0.457649
3	0	434.5	-0.457668
3	0	436.5	-0.457692
3	0	438.5	-0.457698
3	0	440.5	-0.45771
3	0	442.5	-0.45764
3	0	444.5	-0.457667
3	0	446.5	-0.457686
3	0	448.5	-0.45771
3	0	450.5	-0.457723
3	0	452.5	-0.457743
3	0	454.5	-0.457766
3	0	456.5	-0.457789
3	0	458.5	-0.457813
3	0	460.5	-0.457846
3	0	462.5	-0.457872
3	0	464.5	-0.457893
3	0	466.5	-0.457908
3	0	468.5	-0.457924
3	0	470.5	-0.457943
3	0	472.5	-0.457963
3	0	474.5	-0.457985
3	0	476.5	-0.458
3	0	478.5	-0.458003
3	0	480.5	-0.458028
3	0	482.5	-0.458055
3	0	484.5	-0.458085
3	0	486.5	-0.458109
3	0	488.5	-0.458124
3	0	490.5	-0.45815
3	0	492.5	-0.458173
3	0	494.5	-0.458203
3	0	496.5	-0.458231
3	0	498.5	-0.458262
3	0	500.5	-0.458295
3	0	502.5	-0.458327
3	0	504.5	-0.458351
3	0	506.5	-0.458383
3	0	508.5	-0.458412
3	0	510.5	-0.458435
3	0	512.5	-0.458459
3	0	514.5	-0.458489
3	0	516.5	-0.458517
3	0	518.5	-0.458538
3	0	520.5	-0.458567
3	0	522.5	-0.458597
3	0	524.5	-0.458624
3	0	526.5	-0.458651
3	0	528.5	-0.45868
3	0	530.5	-0.458707
3	0	532.5	-0.458733
3	0	534.5	-0.458761
3	0	536.5	-0.458789
3	0	538.5	-0.458817
3	0	540.5	-0.458843
3	0	542.5	-0.458876
3	0	544.5	-0.458902
3	0	546.5	-0.458926
3	0	548.5	-0.458949
3	0	550.5	-0.458973
3	0	552.5	-0.458998
3	0	554.5	-0.459021
3	0	556.5	-0.459041
3	0	558.5	-0.45906
3	0	560.5	-0.459083
3	0	562.5	-0.459114
3	0	564.5	-0.459149
3	0	566.5	-0.459178
3	0	568.5	-0.459205
3	0	570.5	-0.459225
3	0	572.5	-0.459253
3	0	574.5	-0.459278
3	0	576.5	-0.459305
3	0	578.5	-0.459331
3	0	580.5	-0.459349
3	0	582.5	-0.459379
3	0	584.5	-0.459409
3	0	586.5	-0.459429
3	0	588.5	-0.459467
3	0	590.5	-0.459495
3	0	592.5	-0.459533
3	0	594.5	-0.459551
3	0	596.5	-0.459576
3	0	598.5	-0.459599
3	0	600.5	-0.459626
3	0	602.5	-0.459654
3	0	604.5	-0.45968
3	0	606.5	-0.45971
3	0	608.5	-0.459732
3	0	610.5	-0.459762
3	0	612.5	-0.459788
3	0	614.5	-0.459821
3	0	616.5	-0.459878
3	0	618.5	-0.45989
3	0	620.5	-0.459914
3	0	622.5	-0.45994
3	0	624.5	-0.45997
3	0	626.5	-0.460002
3	0	628.5	-0.460036
3	0	630.5	-0.460056
3	0	632.5	-0.460078
3	0	634.5	-0.460105
3	0	636.5	-0.460132
3	0	638.5	-0.460163
3	0	640.5	-0.460166
3	0	642.5	-0.460181
3	0	644.5	-0.460202
3	0	646.5	-0.460178
3	0	648.5	-0.460194
3	0	650.5	-0.460208
3	0	652.5	-0.460231
3	0	654.5	-0.460265
3	0	656.5	-0.460294
3	0	658.5	-0.460323
3	0	660.5	-0.460349
3	0	662.5	-0.460381
3	0	664.5	-0.460403
3	0	666.5	-0.46043
3	0	668.5	-0.460448
3	0	670.5	-0.460462
3	0	672.5	-0.460486
3	0	674.5	-0.4605
3	0	676.5	-0.460493
3	0	678.5	-0.460501
3	0	680.5	-0.460523
3	0	682.5	-0.460535
3	0	684.5	-0.460556
3	0	686.5	-0.46058
3	0	688.5	-0.460603
3	0	690.5	-0.460619
3	0	692.5	-0.460639
3	0	694.5	-0.460659
3	0	696.5	-0.460679
3	0	698.5	-0.460708
3	0	700.5	-0.460733
3	0	702.5	-0.460759
3	0	704.5	-0.460783
3	0	706.5	-0.4608
3	0	708.5	-0.460823
3	0	710.5	-0.460841
3	0	712.5	-0.460865
3	0	714.5	-0.460879
3	0	716.5	-0.460898
3	0	718.5	-0.460916
3	0	720.5	-0.460914
3	0	722.5	-0.460909
3	0	724.5	-0.460939
3	0	726.5	-0.460971
3	0	728.5	-0.461007
3	0	730.5	-0.461027
3	0	732.5	-0.461049
3	0	734.5	-0.461069
3	0	736.5	-0.461086
3	0	738.5	-0.461122
3	0	740.5	-0.461155
3	0	742.5	-0.461174
3	0	744.5	-0.461195
3	0	746.5	-0.46122
3	0	748.5	-0.46125
3	0	750.5	-0.461273
3	0	752.5	-0.461305
3	0	754.5	-0.461326
3	0	756.5	-0.461336
3	0	758.5	-0.461343
3	0	760.5	-0.461356
3	0	762.5	-0.46137
3	0	764.5	-0.461419
3	0	766.5	-0.461453
3	0	768.5	-0.461506
3	0	770.5	-0.461575
3	0	772.5	-0.461604
3	0	774.5	-0.461587
3	0	776.5	-0.46154
3	0	778.5	-0.461505
3	0	780.5	-0.461457
3	0	782.5	-2.30797
3	0	784.5	-2.6145
3	0	786.5	-2.42792
3	0	788.5	-2.57573
3	0	790.5	-2.58949
3	0	792.5	-2.73178
3	0	794.5	-2.83873
3	0	796.5	-2.84821
3	0	798.5	-2.85895
3	0	800.5	-2.95697
3	0	802.5	-2.75444
3	0	804.5	-2.74521
3	0	806.5	-2.78195
3	0	808.5	-2.76715
3	0	810.5	-2.85081
3	0	812.5	-2.87547
3	0	814.5	-2.79699
3	0	816.5	-2.7077
3	0	818.5	-2.73678
3	0	820.5	-2.79655
3	0	822.5	-2.75257
3	0	824.5	-2.7704
3	0	826.5	-2.71585
3	0	828.5	-2.59364
3	0	830.5	-2.58556
3	0	832.5	-2.58501
3	0	834.5	-2.61432
3	0	836.5	-2.54616
3	0	838.5	-2.52733
3	0	840.5	-2.48328
3	0	842.5	-2.46608
3	0	844.5	-2.41749
3	0	846.5	-2.40162
3	0	848.5	-2.38988
3	0	850.5	-2.47548
3	0	852.5	-2.42652
3	0	854.5	-2.38745
3	0	856.5	-2.40529
3	0	858.5	-2.38386
3	0	860.5	-2.32283
3	0	862.5	-2.30095
3	0	864.5	-2.28485
3	0	866.5	-2.25356
3	0	868.5	-2.21379
3	0	870.5	-2.31941
3	0	872.5	-2.27499
3	0	874.5	-2.27042
3	0	876.5	-2.20936
3	0	878.5	-2.21009
3	0	880.5	-2.17057
3	0	882.5	-2.14391
3	0	884.5	-2.10366
3	0	886.5	-2.2399
3	0	888.5	-2.19328
3	0	890.5	-2.21193
3	0	892.5	-2.16763
3	0	894.5	-2.18429
3	0	896.5	-2.14815
3	0	898.5	-2.09383
3	0	900.5	-2.17075
3	0	902.5	-2.14104
3	0	904.5	-2.10478
3	0	906.5	-2.12113
3	0	908.5	-2.08114
3	0	910.5	-2.08364
3	0	912.5	-2.0688
3	0	914.5	-2.04004
3	0	916.5	-2.03697
3	0	918.5	-2.13095
3	0	920.5	-2.12721
3	0	922.5	-2.13326
3	0	924.5	-2.10914
3	0	926.5	-2.10987
3	0	928.5	-2.11096
3	0	930.5	-2.08906
3	0	932.5	-2.08016
3	0	934.5	-2.08126
3	0	936.5	-2.06063
3	0	938.5	-2.0444
3	0	940.5	-2.02702
3	0	942.5	-2.01007
3	0	944.5	-2.03489
3	0	946.5	-2.04215
3	0	948.5	-2.0357
3	0	950.5	-1.98174
3	0	952.5	-2.10679
3	0	954.5	-2.06551
3	0	956.5	-2.05055
3	0	958.5	-2.02786
3	0	960.5	-1.98785
3	0	962.5	-1.96097
3	0	964.5	-2.12615
3	0	966.5	-2.08274
3	0	968.5	-2.06905
3	0	970.5	-2.09162
3	0	972.5	-2.08122
3	0	974.5	-2.07786
3	0	976.5	-2.05743
3	0	978.5	-2.07777
3	0	980.5	-2.07062
3	0	982.5	-2.05387
3	0	984.5	-2.05298
3	0	986.5	-2.02384
3	0	988.5	-2.02613
3	0	990.5	-1.98267
3	0	992.5	-2.01778
3	0	994.5	-2.10382
3	0	996.5	-2.131
3	0	998.5	-2.11551
3	0	1000.5	-2.10822
3	0	1002.5	-2.08994
3	0	1004.5	-2.04961
3	0	1006.5	-2.09497
3	0	1008.5	-2.09869
3	0	1010.5	-2.06139
3	0	1012.5	-2.04319
3	0	1014.5	-2.07451
3	0	1016.5	-2.06512
3	0	1018.5	-2.08818
3	0	1020.5	-2.08774
3	0	1022.5	-2.06841
3	0	1024.5	-2.0785
3	0	1026.5	-2.08619
3	0	1028.5	-2.05866
3	0	1030.5	-2.05497
3	0	1032.5	-2.02443
3	0	1034.5	-1.99538
3	0	1036.5	-1.96332
3	0	1038.5	-1.95494
3	0	1040.5	-2.08435
3	0	1042.5	-2.0719
3	0	1044.5	-2.05947
3	0	1046.5	-2.03644
3	0	1048.5	-2.0208
3	0	1050.5	-2.00028
3	0	1052.5	-2.02792
3	0	1054.5	-1.98848
3	0	1056.5	-1.96669
3	0	1058.5	-1.96405
3	0	1060.5	-2.08707
3	0	1062.5	-2.07432
3	0	1064.5	-2.06808
3	0	1066.5	-2.04997
3	0	1068.5	-2.06618
3	0	1070.5	-2.05424
3	0	1072.5	-2.02301
3	0	1074.5	-2.02893
3	0	1076.5	-2.01997
3	0	1078.5	-2.02086
3	0	1080.5	-1.9862
3	0	1082.5	-2.05547
3	0	1084.5	-2.0187
3	0	1086.5	-2.02385
3	0	1088.5	-2.02865
3	0	1090.5	-2.00008
3	0	1092.5	-2.00911
3	0	1094.5	-1.97953
3	0	1096.5	-2.0414
3	0	1098.5	-2.01621
3	0	1100.5	-2.01112
3	0	1102.5	-2.00974
3	0	1104.5	-1.97589
3	0	1106.5	-1.93574
3	0	1108.5	-1.90033
3	0	1110.5	-2.05528
3	0	1112.5	-2.0247
3	0	1114.5	-2.04504
3	0	1116.5	-2.02631
3	0	1118.5	-2.01112
3	0	1120.5	-2.01423
3	0	1122.5	-1.96059
3	0	1124.5	-1.96206
3	0	1126.5	-1.97649
3	0	1128.5	-2.00807
3	0	1130.5	-2.0049
3	0	1132.5	-1.97506
3	0	1134.5	-1.95497
3	0	1136.5	-1.94195
3	0	1138.5	-1.9115
3	0	1140.5	-1.90233
3	0	1142.5	-2.0264
3	0	1144.5	-1.98916
3	0	1146.5	-1.94705
3	0	1148.5	-2.07299
3	0	1150.5	-2.04426
3	0	1152.5	-2.03227
3	0	1154.5	-2.07621
3	0	1156.5	-2.05913
3	0	1158.5	-2.0533
3	0	1160.5	-2.06292
3	0	1162.5	-2.04994
3	0	1164.5	-2.04308
3	0	1166.5	-2.01362
3	0	1168.5	-2.00979
3	0	1170.5	-1.96353
3	0	1172.5	-2.08693
3	0	1174.5	-2.06515
3	0	1176.5	-2.06788
3	0	1178.5	-2.03755
3	0	1180.5	-2.04135
3	0	1182.5	-2.04257
3	0	1184.5	-2.04372
3	0	1186.5	-2.03609
3	0	1188.5	-2.04739
3	0	1190.5	-2.00008
3	0	1192.5	-2.05551
3	0	1194.5	-2.05451
3	0	1196.5	-2.05747
3	0	1198.5	-2.0233
3	0	1200.5	-2.03987
3	0	1202.5	-2.03048
3	0	1204.5	-2.01901
3	0	1206.5	-2.08301
3	0	1208.5	-2.06093
3	0	1210.5	-2.03415
3	0	1212.5	-1.99973
3	0	1214.5	-2.00021
3	0	1216.5	-2.02939
3	0	1218.5	-2.02569
3	0	1220.5	-2.02503
3	0	1222.5	-2.01355
3	0	1224.5	-2.0007
3	0	1226.5	-2.03567
3	0	1228.5	-2.0329
3	0	1230.5	-2.01154
3	0	1232.5	-1.99713
3	0	1234.5	-1.98213
3	0	1236.5	-2.06335
3	0	1238.5	-2.02456
3	0	1240.5	-2.01432
3	0	1242.5	-2.02882
3	0	1244.5	-2.04179
3	0	1246.5	-2.02365
3	0	1248.5	-2.0287
3	0	1250.5	-2.01315
3	0	1252.5	-2.00563
3	0	1254.5	-1.98181
3	0	1256.5	-2.00875
3	0	1258.5	-2.01839
3	0	1260.5	-1.99767
3	0	1262.5	-2.00534
3	0	1264.5	-2.05224
3	0	1266.5	-2.0726
3	0	1268.5	-2.04484
3	0	1270.5	-2.04457
3	0	1272.5	-2.01063
3	0	1274.5	-2.01813
3	0	1276.5	-2.03493
3	0	1278.5	-2.06993
3	0	1280.5	-2.05275
3	0	1282.5	-2.03152
3	0	1284.5	-2.0909
3	0	1286.5	-2.06238
3	0	1288.5	-2.05697
3	0	1290.5	-2.01896
3	0	1292.5	-2.01877
3	0	1294.5	-2.02537
3	0	1296.5	-2.07935
3	0	1298.5	-2.05107
3	0	1300.5	-2.07117
3	0	1302.5	-2.01758
3	0	1304.5	-2.02234
3	0	1306.5	-2.02486
3	0	1308.5	-2.01922
3	0	1310.5	-2.0307
3	0	1312.5	-2.03491
3	0	1314.5	-2.00702
3	0	1316.5	-1.98883
3	0	1318.5	-1.98541
3	0	1320.5	-1.94237
3	0	1322.5	-2.07096
3	0	1324.5	-2.05181
3	0	1326.5	-2.03245
3	0	1328.5	-2.01507
3	0	1330.5	-2.03803
3	0	1332.5	-2.06966
3	0	1334.5	-2.02932
3	0	1336.5	-2.0162
3	0	1338.5	-2.02431
3	0	1340.5	-2.00802
3	0	1342.5	-2.06969
3	0	1344.5	-2.04317
3	0	1346.5	-2.05095
3	0	1348.5	-2.04184
3	0	1350.5	-1.99928
3	0	1352.5	-2.00092
3	0	1354.5	-2.04467
3	0	1356.5	-2.02638
3	0	1358.5	-2.03694
3	0	1360.5	-2.02198
3	0	1362.5	-2.00051
3	0	1364.5	-2.02323
3	0	1366.5	-2.03054
3	0	1368.5	-2.00829
3	0	1370.5	-1.99547
3	0	1372.5	-1.99427
3	0	1374.5	-2.01043
3	0	1376.5	-2.03428
3	0	1378.5	-2.0207
3	0	1380.5	-2.03659
3	0	1382.5	-2.04158
3	0	1384.5	-2.01086
3	0	1386.5	-2.01253
3	0	1388.5	-2.02512
3	0	1390.5	-2.01762
3	0	1392.5	-2.01823
3	0	1394.5	-2.02066
3	0	1396.5	-2.00016
3	0	1398.5	-2.02643
3	0	1400.5	-2.0326
3	0	1402.5	-2.02508
3	0	1404.5	-2.01595
3	0	1406.5	-1.97941
3	0	1408.5	-2.01874
3	0	1410.5	-2.03067
3	0	1412.5	-2.02193
3	0	1414.5	-2.05882
3	0	1416.5	-2.03143
3	0	1418.5	-2.04301
3	0	1420.5	-2.04297
3	0	1422.5	-2.01999
3	0	1424.5	-2.0111
3	0	1426.5	-2.02683
3	0	1428.5	-2.01858
3	0	1430.5	-2.05259
3	0	1432.5	-2.03762
3	0	1434.5	-2.01424
3	0	1436.5	-2.00144
3	0	1438.5	-2.00623
3	0	1440.5	-2.03528
3	0	1442.5	-2.02478
3	0	1444.5	-2.01441
3	0	1446.5	-2.05683
3	0	1448.5	-2.04054
3	0	1450.5	-2.01171
3	0	1452.5	-1.9905
3	0	1454.5	-2.02211
3	0	1456.5	-2.00972
3	0	1458.5	-2.01062
3	0	1460.5	-2.02901
3	0	1462.5	-2.01987
3	0	1464.5	-2.00901
3	0	1466.5	-2.0151
3	0	1468.5	-2.04543
3	0	1470.5	-2.02047
3	0	1472.5	-1.98357
3	0	1474.5	-2.01829
3	0	1476.5	-2.00752
3	0	1478.5	-1.99847
3	0	1480.5	-2.02707
3	0	1482.5	-2.0592
3	0	1484.5	-2.02488
3	0	1486.5	-2.02056
3	0	1488.5	-2.02653
3	0	1490.5	-2.02157
3	0	1492.5	-2.02499
3	0	1494.5	-2.01662
3	0	1496.5	-2.02575
3	0	1498.5	-2.01302
3	0	1500.5	-2.01564
3	0	1502.5	-1.99559
3	0	1504.5	-1.96971
3	0	1506.5	-1.9578
3	0	1508.5	-1.99207
3	0	1510.5	-2.0133
3	0	1512.5	-1.9914
3	0	1514.5	-2.02825
3	0	1516.5	-2.02733
3	0	1518.5	-2.02203
3	0	1520.5	-2.01586
3	0	1522.5	-2.00105
3	0	1524.5	-1.99767
3	0	1526.5	-2.03237
3	0	1528.5	-2.02725
3	0	1530.5	-2.00259
3	0	1532.5	-2.01978
3	0	1534.5	-2.00747
3	0	1536.5	-2.01195
3	0	1538.5	-1.99064
3	0	1540.5	-1.99819
3	0	1542.5	-1.96642
3	0	1544.5	-1.9418
3	0	1546.5	-1.94569
3	0	1548.5	-2.05862
3	0	1550.5	-2.02289
3	0	1552.5	-2.05874
3	0	1554.5	-2.03567
3	0	1556.5	-2.00906
3	0	1558.5	-1.98491
3	0	1560.5	-2.01961
3	0	1562.5	-2.03018
3	0	1564.5	-2.02886
3	0	1566.5	-2.02275
3	0	1568.5	-2.02234
3	0	1570.5	-2.03951
3	0	1572.5	-2.04872
3	0	1574.5	-2.03403
3	0	1576.5	-2.0294
3	0	1578.5	-2.04345
3	0	1580.5	-2.06417
3	0	1582.5	-2.02943
3	0	1584.5	-2.02559
3	0	1586.5	-1.99782
3	0	1588.5	-2.01724
3	0	1590.5	-2.03011
3	0	1592.5	-2.01512
3	0	1594.5	-1.99843
3	0	1596.5	-2.007
3	0	1598.5	-1.98142
3	0	1600.5	-2.0194
3	0	1602.5	-1.99284
3	0	1604.5	-1.98572
3	0	1606.5	-2.01199
3	0	1608.5	-1.99944
3	0	1610.5	-1.99137
3	0	1612.5	-1.9812
3	0	1614.5	-1.98124
3	0	1616.5	-1.96472
3	0	1618.5	-1.97761
3	0	1620.5	-2.01673
3	0	1622.5	-1.98911
3	0	1624.5	-2.00514
3	0	1626.5	-1.96768
3	0	1628.5	-2.01499
3	0	1630.5	-1.9937
3	0	1632.5	-1.99766
3	0	1634.5	-2.00779
3	0	1636.5	-1.98742
3	0	1638.5	-2.0062
3	0	1640.5	-2.01316
3	0	1642.5	-2.02578
3	0	1644.5	-1.99445
3	0	1646.5	-1.98656
3	0	1648.5	-2.00067
3	0	1650.5	-1.9962
3	0	1652.5	-1.99069
3	0	1654.5	-2.01896
3	0	1656.5	-1.98492
3	0	1658.5	-2.02606
3	0	1660.5	-2.01106
3	0	1662.5	-2.025
3	0	1664.5	-2.04741
3	0	1666.5	-2.04574
3	0	1668.5	-2.04552
3	0	1670.5	-2.01727
3	0	1672.5	-2.01256
3	0	1674.5	-2.00859
3	0	1676.5	-2.01098
3	0	1678.5	-2.01999
3	0	1680.5	-2.05009
3	0	1682.5	-2.00737
3	0	1684.5	-1.99147
3	0	1686.5	-2.02153
3	0	1688.5	-2.02236
3	0	1690.5	-2.03305
3	0	1692.5	-2.02782
3	0	1694.5	-1.99773
3	0	1696.5	-1.98107
3	0	1698.5	-1.97326
3	0	1700.5	-1.99871
3	0	1702.5	-2.00725
3	0	1704.5	-2.00119
3	0	1706.5	-2.03398
3	0	1708.5	-2.01155
3	0	1710.5	-2.01627
3	0	1712.5	-2.01587
3	0	1714.5	-2.00367
3	0	1716.5	-1.99255
3	0	1718.5	-2.00076
3	0	1720.5	-1.99642
3	0	1722.5	-2.0005
3	0	1724.5	-2.00617
3	0	1726.5	-2.00131
3	0	1728.5	-1.98529
3	0	1730.5	-2.02649
3	0	1732.5	-2.01919
3	0	1734.5	-2.02641
3	0	1736.5	-2.0009
3	0	1738.5	-2.01448
3	0	1740.5	-2.02111
3	0	1742.5	-1.96988
3	0	1744.5	-1.99735
3	0	1746.5	-1.99093
3	0	1748.5	-1.99055
3	0	1750.5	-2.01478
3	0	1752.5	-2.0204
3	0	1754.5	-1.96755
3	0	1756.5	-1.9665
3	0	1758.5	-1.99635
3	0	1760.5	-2.02605
3	0	1762.5	-1.99807
3	0	1764.5	-2.0156
3	0	1766.5	-1.9911
3	0	1768.5	-1.98691
3	0	1770.5	-2.01532
3	0	1772.5	-2.01291
3	0	1774.5	-2.01838
3	0	1776.5	-2.00036
3	0	1778.5	-2.00134
3	0	1780.5	-2.01996
3	0	1782.5	-2.02668
3	0	1784.5	-2.01234
3	0	1786.5	-2.00452
3	0	1788.5	-1.97558
3	0	1790.5	-2.0099
3	0	1792.5	-2.03464
3	0	1794.5	-2.01127
3	0	1796.5	-2.0416
3	0	1798.5	-2.0352
3	0	1800.5	-2.03944
3	0	1802.5	-2.00759
3	0	1804.5	-2.00995
3	0	1806.5	-2.01613
3	0	1808.5	-2.0274
3	0	1810.5	-2.03478
3	0	1812.5	-1.99081
3	0	1814.5	-2.01713
3	0	1816.5	-2.02889
3	0	1818.5	-2.01422
3	0	1820.5	-2.03454
3	0	1822.5	-2.02621
3	0	1824.5	-1.98899
3	0	1826.5	-2.03086
3	0	1828.5	-2.0362
3	0	1830.5	-2.01747
3	0	1832.5	-2.04941
3	0	1834.5	-2.03343
3	0	1836.5	-2.01934
3	0	1838.5	-2.00773
3	0	1840.5	-2.03032
3	0	1842.5	-2.03106
3	0	1844.5	-2.02348
3	0	1846.5	-2.02397
3	0	1848.5	-2.03845
3	0	1850.5	-2.00738
3	0	1852.5	-2.00114
3	0	1854.5	-2.00117
3	0	1856.5	-1.9998
3	0	1858.5	-1.96585
3	0	1860.5	-1.97878
3	0	1862.5	-2.00342
3	0	1864.5	-1.99022
3	0	1866.5	-2.00228
3	0	1868.5	-2.02091
3	0	1870.5	-2.01904
3	0	1872.5	-1.99706
3	0	1874.5	-2.00877
3	0	1876.5	-2.02393
3	0	1878.5	-2.0013
3	0	1880.5	-2.03039
3	0	1882.5	-2.0168
3	0	1884.5	-2.00999
3	0	1886.5	-2.03435
3	0	1888.5	-2.01502
3	0	1890.5	-2.00977
3	0	1892.5	-2.01031
3	0	1894.5	-1.98799
3	0	1896.5	-1.97553
3	0	1898.5	-2.0453
3	0	1900.5	-2.02605
3	0	1902.5	-2.02466
3	0	1904.5	-2.02805
3	0	1906.5	-2.03072
3	0	1908.5	-2.03956
3	0	1910.5	-2.02631
3	0	1912.5	-1.99414
3	0	1914.5	-2.02023
3	0	1916.5	-2.01999
3	0	1918.5	-2.0019
3	0	1920.5	-2.00736
3	0	1922.5	-2.03156
3	0	1924.5	-2.0272
3	0	1926.5	-1.9911
3	0	1928.5	-1.98178
3	0	1930.5	-1.99984
3	0	1932.5	-2.02089
3	0	1934.5	-1.98069
3	0	1936.5	-1.99175
3	0	1938.5	-1.9962
3	0	1940.5	-1.99176
3	0	1942.5	-1.98292
3	0	1944.5	-2.01017
3	0	1946.5	-2.01104
3	0	1948.5	-1.98889
3	0	1950.5	-1.98102
3	0	1952.5	-1.98481
3	0	1954.5	-2.00325
3	0	1956.5	-1.98697
3	0	1958.5	-1.98555
3	0	1960.5	-1.99216
3	0	1962.5	-1.96824
3	0	1964.5	-1.97454
3	0	1966.5	-1.96513
3	0	1968.5	-1.98727
3	0	1970.5	-2.00015
3	0	1972.5	-1.98202
3	0	1974.5	-1.99341
3	0	1976.5	-1.98461
3	0	1978.5	-1.99347
3	0	1980.5	-1.98345
3	0	1982.5	-1.99392
3	0	1984.5	-1.99344
3	0	1986.5	-2.0224
3	0	1988.5	-1.97935
3	0	1990.5	-1.99965
3	0	1992.5	-2.00487
3	0	1994.5	-1.98379
3	0	1996.5	-1.97757
3	0	1998.5	-1.96326
3	0	2000.5	-1.95796
3	0	2002.5	-1.98915
3	0	2004.5	-1.99898
3	0	2006.5	-1.99102
3	0	2008.5	-1.99955
3	0	2010.5	-2.00399
3	0	2012.5	-1.98261
3	0	2014.5	-2.00694
3	0	2016.5	-1.98098
3	0	2018.5	-1.99294
3	0	2020.5	-1.99076
3	0	2022.5	-1.99115
3	0	2024.5	-1.97688
3	0	2026.5	-1.95805
3	0	2028.5	-1.95561
3	0	2030.5	-1.96126
3	0	2032.5	-1.9732
3	0	2034.5	-1.98517
3	0	2036.5	-1.97043
3	0	2038.5	-2.00154
3	0	2040.5	-1.99364
3	0	2042.5	-1.9957
3	0	2044.5	-2.00112
3	0	2046.5	-1.96656
3	0	2048.5	-2.01354
3	0	2050.5	-1.99977
3	0	2052.5	-1.99153
3	0	2054.5	-2.0125
3	0	2056.5	-2.01774
3	0	2058.5	-1.99595
3	0	2060.5	-2.00321
3	0	2062.5	-2.00808
3	0	2064.5	-1.98935
3	0	2066.5	-1.99693
3	0	2068.5	-1.98398
3	0	2070.5	-2.00207
3	0	2072.5	-1.99458
3	0	2074.5	-1.98932
3	0	2076.5	-1.97748
3	0	2078.5	-1.98366
3	0	2080.5	-1.96057
3	0	2082.5	-1.95901
3	0	2084.5	-1.94535
3	0	2086.5	-1.9606
3	0	2088.5	-1.95111
3	0	2090.5	-1.97212
3	0	2092.5	-1.99029
3	0	2094.5	-1.99944
3	0	2096.5	-1.97931
3	0	2098.5	-1.95404
3	0	2100.5	-1.96139
3	0	2102.5	-1.99354
3	0	2104.5	-1.98216
3	0	2106.5	-1.9805
3	0	2108.5	-1.97376
3	0	2110.5	-1.98253
3	0	2112.5	-1.98994
3	0	2114.5	-1.9999
3	0	2116.5	-2.00426
3	0	2118.5	-1.98546
3	0	2120.5	-1.9916
3	0	2122.5	-1.98755
3	0	2124.5	-1.99034
3	0	2126.5	-2.01781
3	0	2128.5	-2.03285
3	0	2130.5	-2.01743
3	0	2132.5	-2.00371
3	0	2134.5	-2.00047
3	0	2136.5	-2.00725
3	0	2138.5	-1.97532
3	0	2140.5	-2.00215
3	0	2142.5	-1.99693
3	0	2144.5	-1.99308
3	0	2146.5	-1.97544
3	0	2148.5	-1.96801
3	0	2150.5	-1.98192
3	0	2152.5	-1.98963
3	0	2154.5	-1.98499
3	0	2156.5	-1.99783
3	0	2158.5	-1.99845
3	0	2160.5	-1.99189
3	0	2162.5	-1.99969
3	0	2164.5	-1.9838
3	0	2166.5	-1.96442
3	0	2168.5	-1.96257
3	0	2170.5	-2.00102
3	0	2172.5	-1.9724
3	0	2174.5	-2.0183
3	0	2176.5	-1.99884
3	0	2178.5	-1.99677
3	0	2180.5	-1.98867
3	0	2182.5	-2.00061
3	0	2184.5	-1.96483
3	0	2186.5	-1.96384
3	0	2188.5	-1.97662
3	0	2190.5	-1.98375
3	0	2192.5	-1.99259
3	0	2194.5	-1.98696
3	0	2196.5	-1.99371
3	0	2198.5	-2.00448
3	0	2200.5	-1.98227
3	0	2202.5	-1.97994
3	0	2204.5	-1.97031
3	0	2206.5	-1.97443
3	0	2208.5	-1.9769
3	0	2210.5	-1.98988
3	0	2212.5	-1.97071
3	0	2214.5	-1.95808
3	0	2216.5	-1.96126
3	0	2218.5	-1.95674
3	0	2220.5	-1.96133
3	0	2222.5	-1.95368
3	0	2224.5	-1.95435
3	0	2226.5	-1.94216
3	0	2228.5	-1.98163
3	0	2230.5	-1.96451
3	0	2232.5	-1.96389
3	0	2234.5	-1.98692
3	0	2236.5	-1.99307
3	0	2238.5	-1.95129
3	0	2240.5	-1.95831
3	0	2242.5	-1.97246
3	0	2244.5	-1.97894
3	0	2246.5	-1.97011
3	0	2248.5	-1.95315
3	0	2250.5	-1.9627
3	0	2252.5	-1.98281
3	0	2254.5	-1.95125
3	0	2256.5	-1.96806
3	0	2258.5	-1.98095
3	0	2260.5	-1.94776
3	0	2262.5	-1.9541
3	0	2264.5	-1.94678
3	0	2266.5	-1.95256
3	0	2268.5	-1.95031
3	0	2270.5	-1.9326
3	0	2272.5	-1.97232
3	0	2274.5	-1.98376
3	0	2276.5	-1.96279
3	0	2278.5	-1.94674
3	0	2280.5	-1.92844
3	0	2282.5	-1.9693
3	0	2284.5	-1.96199
3	0	2286.5	-1.99726
3	0	2288.5	-1.98389
3	0	2290.5	-1.96846
3	0	2292.5	-1.9844
3	0	2294.5	-1.98884
3	0	2296.5	-1.97196
3	0	2298.5	-1.98484
3	0	2300.5	-1.94641
3	0	2302.5	-1.95851
3	0	2304.5	-1.96921
3	0	2306.5	-1.97239
3	0	2308.5	-1.95043
3	0	2310.5	-1.93329
3	0	2312.5	-1.95512
3	0	2314.5	-1.99661
3	0	2316.5	-1.98086
3	0	2318.5	-1.99212
3	0	2320.5	-1.97359
3	0	2322.5	-1.98382
3	0	2324.5	-1.98484
3	0	2326.5	-1.9823
3	0	2328.5	-1.9859
3	0	2330.5	-1.97609
3	0	2332.5	-1.96964
3	0	2334.5	-1.95497
3	0	2336.5	-1.99049
3	0	2338.5	-1.96796
3	0	2340.5	-1.95641
3	0	2342.5	-1.96783
3	0	2344.5	-1.95706
3	0	2346.5	-1.9601
3	0	2348.5	-1.93232
3	0	2350.5	-1.93807
3	0	2352.5	-1.97849
3	0	2354.5	-1.96656
3	0	2356.5	-1.93352
3	0	2358.5	-1.94654
3	0	2360.5	-1.93228
3	0	2362.5	-1.94067
3	0	2364.5	-1.96634
3	0	2366.5	-1.95697
3	0	2368.5	-1.96916
3	0	2370.5	-1.978
3	0	2372.5	-1.94927
3	0	2374.5	-1.95165
3	0	2376.5	-1.96393
3	0	2378.5	-1.96397
3	0	2380.5	-1.97989
3	0	2382.5	-1.96531
3	0	2384.5	-1.95694
3	0	2386.5	-1.94523
3	0	2388.5	-1.98296
3	0	2390.5	-1.9548
3	0	2392.5	-1.93145
3	0	2394.5	-1.94764
3	0	2396.5	-1.94936
3	0	2398.5	-1.98285
3	0	2400.5	-1.96644
3	0	2402.5	-1.97808
3	0	2404.5	-1.96862
3	0	2406.5	-1.96684
3	0	2408.5	-1.97181
3	0	2410.5	-1.96762
3	0	2412.5	-1.96856
3	0	2414.5	-1.95167
3	0	2416.5	-1.94547
3	0	2418.5	-1.93622
3	0	2420.5	-1.94089
3	0	2422.5	-1.96997
3	0	2424.5	-1.95398
3	0	2426.5	-1.96861
3	0	2428.5	-1.96118
3	0	2430.5	-1.99618
3	0	2432.5	-1.98079
3	0	2434.5	-1.99053
3	0	2436.5	-1.97973
3	0	2438.5	-1.97311
3	0	2440.5	-1.97249
3	0	2442.5	-1.94646
3	0	2444.5	-1.94431
3	0	2446.5	-1.95441
3	0	2448.5	-1.93115
3	0	2450.5	-1.92177
3	0	2452.5	-1.91386
3	0	2454.5	-1.95096
3	0	2456.5	-1.93627
3	0	2458.5	-1.95567
3	0	2460.5	-1.95434
3	0	2462.5	-1.92849
3	0	2464.5	-1.92941
3	0	2466.5	-1.93925
3	0	2468.5	-1.94188
3	0	2470.5	-1.97344
3	0	2472.5	-1.93369
3	0	2474.5	-1.94571
3	0	2476.5	-1.95182
3	0	2478.5	-1.93485
3	0	2480.5	-1.9343
3	0	2482.5	-1.94097
3	0	2484.5	-1.97658
3	0	2486.5	-1.97611
3	0	2488.5	-1.94569
3	0	2490.5	-1.9509
3	0	2492.5	-1.97
3	0	2494.5	-1.94269
3	0	2496.5	-1.95247
3	0	2498.5	-1.94415
3	0	2500.5	-1.97731
3	0	2502.5	-1.94963
3	0	2504.5	-1.97744
3	0	2506.5	-1.94987
3	0	2508.5	-1.96821
3	0	2510.5	-1.92487
3	0	2512.5	-1.93483
3	0	2514.5	-1.93922
3	0	2516.5	-1.94082
3	0	2518.5	-1.97727
3	0	2520.5	-1.97137
3	0	2522.5	-1.95569
3	0	2524.5	-1.9927
3	0	2526.5	-1.96695
3	0	2528.5	-1.98186
3	0	2530.5	-1.95536
3	0	2532.5	-1.95592
3	0	2534.5	-1.94708
3	0	2536.5	-1.96311
3	0	2538.5	-1.93338
3	0	2540.5	-1.96263
3	0	2542.5	-1.94275
3	0	2544.5	-1.93889
3	0	2546.5	-1.97596
3	0	2548.5	-1.95701
3	0	2550.5	-1.97666
3	0	2552.5	-1.9285
3	0	2554.5	-1.92069
3	0	2556.5	-1.9438
3	0	2558.5	-1.94542
3	0	2560.5	-1.94787
3	0	2562.5	-1.96169
3	0	2564.5	-1.93416
3	0	2566.5	-1.93925
3	0	2568.5	-1.95029
3	0	2570.5	-1.94349
3	0	2572.5	-1.94897
3	0	2574.5	-1.96787
3	0	2576.5	-1.96444
3	0	2578.5	-1.92877
3	0	2580.5	-1.92934
3	0	2582.5	-1.04277
3	0	2584.5	-1.02965
3	0	2586.5	-1.02433
3	0	2588.5	-1.0203
3	0	2590.5	-1.017
3	0	2592.5	-1.0141
3	0	2594.5	-1.01144
3	0	2596.5	-1.00898
3	0	2598.5	-1.00667
3	0	2600.5	-1.0046
3	0	2602.5	-1.00279
3	0	2604.5	-1.00111
3	0	2606.5	-0.999696
3	0	2608.5	-0.998433
3	0	2610.5	-0.997266
3	0	2612.5	-0.99624
3	0	2614.5	-0.995294
3	0	2616.5	-0.994401
3	0	2618.5	-0.993582
3	0	2620.5	-0.992816
3	0	2622.5	-0.992097
3	0	2624.5	-0.991419
3	0	2626.5	-0.990782
3	0	2628.5	-0.990203
3	0	2630.5	-0.989644
3	0	2632.5	-0.989126
3	0	2634.5	-0.98864
3	0	2636.5	-0.988183
3	0	2638.5	-0.987757
3	0	2640.5	-0.987353
3	0	2642.5	-0.986971
3	0	2644.5	-0.986616
3	0	2646.5	-0.986289
3	0	2648.5	-0.985958
3	0	2650.5	-0.985658
3	0	2652.5	-0.98537
3	0	2654.5	-0.985102
3	0	2656.5	-0.984834
3	0	2658.5	-0.984588
3	0	2660.5	-0.984343
3	0	2662.5	-0.984115
3	0	2664.5	-0.983899
3	0	2666.5	-0.983683
3	0	2668.5	-0.983466
3	0	2670.5	-0.983264
3	0	2672.5	-0.983067
3	0	2674.5	-0.982877
3	0	2676.5	-0.982708
3	0	2678.5	-0.982533
3	0	2680.5	-0.982366
3	0	2682.5	-0.982202
3	0	2684.5	-0.982044
3	0	2686.5	-0.981894
3	0	2688.5	-0.981755
3	0	2690.5	-0.981622
3	0	2692.5	-0.981485
3	0	2694.5	-0.98136
3	0	2696.5	-0.981225
3	0	2698.5	-0.981076
3	0	2700.5	-0.980859
3	0	2702.5	-0.980581
3	0	2704.5	-0.980365
3	0	2704.95	-0.980322