File: TS-82-25-02-60-100_2024-07-22_clean_NaOH_2_04_LSV_C01.txt
mode	ox/red	error	control changes	time/s	control/V	Ewe/V	<I>/mA	(Q-Qo)/C	I Range	<Ece>/V	P/W	Ewe-Ece/V
2	0	0	0	123.592	-1.25527	-1.25879	-202.986	-0.00721938	37	0.649143	0.255517	-1.90793
2	0	0	1	123.776	-1.25344	-1.25372	-200.065	-0.0439342	37	0.64782	0.250825	-1.90154
2	0	0	1	124.109	-1.25011	-1.25086	-196.324	-0.109922	37	0.646849	0.245575	-1.89771
2	0	0	1	124.442	-1.24677	-1.24771	-192.607	-0.174665	37	0.645638	0.240317	-1.89334
2	0	0	1	124.776	-1.24344	-1.24187	-188.742	-0.238125	37	0.64403	0.234392	-1.8859
2	0	0	1	125.109	-1.24011	-1.23941	-185.067	-0.300326	37	0.642678	0.229373	-1.88208
2	0	0	1	125.442	-1.23677	-1.23956	-181.084	-0.361268	37	0.640974	0.224464	-1.88053
2	0	0	1	125.776	-1.23344	-1.23572	-177.461	-0.420947	37	0.640232	0.219293	-1.87595
2	0	0	1	126.109	-1.23011	-1.23072	-173.479	-0.479359	37	0.638396	0.213505	-1.86911
2	0	0	1	126.443	-1.22677	-1.2301	-169.618	-0.536459	37	0.637029	0.208648	-1.86713
2	0	0	1	126.776	-1.22344	-1.22181	-165.702	-0.592268	37	0.635869	0.202456	-1.85767
2	0	0	1	127.109	-1.2201	-1.2197	-161.851	-0.646767	37	0.634103	0.19741	-1.8538
2	0	0	1	127.443	-1.21677	-1.22203	-157.971	-0.699974	37	0.632222	0.193045	-1.85425
2	0	0	1	127.776	-1.21344	-1.21151	-154.282	-0.751938	37	0.63101	0.186914	-1.84252
2	0	0	1	128.109	-1.2101	-1.21185	-150.621	-0.802678	37	0.62953	0.182531	-1.84138
2	0	0	1	128.443	-1.20677	-1.20489	-146.794	-0.852166	37	0.628361	0.176871	-1.83325
2	0	0	1	128.776	-1.20343	-1.20441	-143.097	-0.900404	37	0.626814	0.172348	-1.83122
2	0	0	1	129.11	-1.2001	-1.20036	-139.518	-0.947437	37	0.625029	0.167472	-1.82539
2	0	0	1	129.443	-1.19677	-1.19492	-135.83	-0.993238	37	0.623411	0.162306	-1.81833
2	0	0	1	129.776	-1.19343	-1.19594	-132.146	-1.03781	37	0.621633	0.158039	-1.81757
2	0	0	1	130.11	-1.1901	-1.18852	-128.557	-1.08117	37	0.620103	0.152793	-1.80862
2	0	0	1	130.443	-1.18677	-1.19001	-124.898	-1.12335	37	0.618389	0.14863	-1.8084
2	0	0	1	130.776	-1.18343	-1.18096	-121.313	-1.16431	37	0.616794	0.143267	-1.79776
2	0	0	1	131.11	-1.1801	-1.18275	-117.842	-1.20409	37	0.61543	0.139378	-1.79818
2	0	0	1	131.443	-1.17677	-1.18188	-114.365	-1.24272	37	0.614152	0.135166	-1.79603
2	0	0	1	131.776	-1.17343	-1.17247	-110.917	-1.28019	37	0.612316	0.130046	-1.78478
2	0	0	1	132.11	-1.1701	-1.16795	-107.417	-1.31649	37	0.611174	0.125458	-1.77913
2	0	0	1	132.443	-1.16677	-1.16689	-104.123	-1.35169	37	0.609436	0.1215	-1.77632
2	0	0	1	132.777	-1.16343	-1.16252	-100.705	-1.38575	37	0.607734	0.117072	-1.77026
2	0	0	1	133.11	-1.1601	-1.16163	-97.277	-1.41868	37	0.605781	0.113	-1.76741
2	0	0	1	133.443	-1.15676	-1.1579	-94.1082	-1.45052	37	0.604303	0.108968	-1.7622
2	0	0	1	133.777	-1.15343	-1.15064	-90.7792	-1.48127	37	0.602909	0.104454	-1.75355
2	0	0	1	134.11	-1.1501	-1.14966	-87.535	-1.51092	37	0.601132	0.100636	-1.75079
2	0	0	1	134.443	-1.14676	-1.14746	-84.3683	-1.5395	37	0.599479	0.0968092	-1.74694
2	0	0	1	134.777	-1.14343	-1.14273	-81.2239	-1.56703	37	0.598034	0.0928171	-1.74077
2	0	0	1	135.11	-1.14009	-1.14157	-78.2353	-1.59354	37	0.595984	0.0893108	-1.73755
2	0	0	1	135.444	-1.13676	-1.13601	-75.2146	-1.61906	37	0.59418	0.0854444	-1.73019
2	0	0	1	135.777	-1.13343	-1.13431	-72.2626	-1.64358	37	0.592512	0.0819685	-1.72683
2	0	0	1	136.11	-1.13009	-1.13257	-69.4303	-1.66713	37	0.590985	0.0786348	-1.72356
2	0	0	1	136.444	-1.12676	-1.12742	-66.516	-1.68972	37	0.589621	0.0749915	-1.71704
2	0	0	1	136.777	-1.12343	-1.1233	-63.6655	-1.71135	37	0.58766	0.0715157	-1.71096
2	0	0	1	137.11	-1.12009	-1.12089	-60.8593	-1.73204	37	0.586046	0.0682162	-1.70693
2	0	0	1	137.444	-1.11676	-1.11804	-58.0842	-1.75181	37	0.583847	0.0649404	-1.70189
2	0	0	1	137.777	-1.11342	-1.11346	-55.3991	-1.77066	37	0.581877	0.0616847	-1.69534
2	0	0	1	138.111	-1.11009	-1.11148	-52.71	-1.78862	37	0.580314	0.0585861	-1.69179
2	0	0	1	138.444	-1.10676	-1.10715	-50.1235	-1.8057	37	0.578201	0.055494	-1.68535
2	0	0	1	138.777	-1.10342	-1.10294	-47.5645	-1.82192	37	0.577116	0.0524608	-1.68006
2	0	0	1	139.127	-1.09992	-1.10003	-44.9638	-1.83803	37	0.574645	0.0494615	-1.67468
2	0	0	1	139.477	-1.09642	-1.09497	-42.5475	-1.85332	38	0.572939	0.0465881	-1.66791
2	0	0	1	139.811	-1.09309	-1.09357	-40.0994	-1.86704	38	0.570888	0.0438514	-1.66446
2	0	0	1	140.144	-1.08975	-1.09101	-37.8196	-1.87998	38	0.569174	0.0412615	-1.66018
2	0	0	1	140.477	-1.08642	-1.08692	-35.5471	-1.89215	38	0.566778	0.0386368	-1.6537
2	0	0	1	140.811	-1.08309	-1.08238	-33.2634	-1.90356	38	0.564925	0.0360036	-1.6473
2	0	0	1	141.144	-1.07976	-1.08063	-31.1043	-1.91424	38	0.562999	0.0336122	-1.64363
2	0	0	1	141.478	-1.07642	-1.07745	-28.9492	-1.9242	38	0.560916	0.0311913	-1.63837
2	0	0	1	141.811	-1.07309	-1.07425	-26.8513	-1.93344	38	0.558683	0.028845	-1.63293
2	0	0	1	142.144	-1.06975	-1.06939	-24.795	-1.942	38	0.556299	0.0265156	-1.62569
2	0	0	1	142.478	-1.06642	-1.06522	-22.694	-1.94986	38	0.554318	0.0241742	-1.61954
2	0	0	1	142.811	-1.06309	-1.0625	-20.6579	-1.95703	38	0.552018	0.0219489	-1.61451
2	0	0	1	143.144	-1.05975	-1.06165	-18.6782	-1.96353	38	0.549338	0.0198297	-1.61099
2	0	0	1	143.478	-1.05642	-1.05803	-16.6768	-1.96937	38	0.546955	0.0176445	-1.60498
2	0	0	1	143.811	-1.05308	-1.0529	-14.6448	-1.97454	38	0.543977	0.0154194	-1.59687
2	0	0	1	144.145	-1.04975	-1.04932	-12.628	-1.97903	38	0.540932	0.0132508	-1.59026
2	0	0	1	144.478	-1.04642	-1.04791	-10.6018	-1.98285	38	0.537093	0.0111097	-1.585
2	0	0	1	144.811	-1.04308	-1.04404	-8.51478	-1.98598	38	0.532831	0.00888976	-1.57687
2	0	0	1	145.145	-1.03975	-1.03996	-6.33241	-1.9884	38	0.528154	0.00658542	-1.56811
2	0	0	1	145.495	-1.03625	-1.03654	-3.88421	-1.99011	38	0.521589	0.00402614	-1.55813
2	0	0	1	145.845	-1.03275	-1.03304	-1.26198	-1.99097	39	0.511572	0.00130368	-1.54461
2	1	0	1	146.178	-1.02941	-1.03141	1.37772	-1.99089	39	0.497401	-0.00142099	-1.52881
2	1	0	1	146.512	-1.02608	-1.02683	4.07126	-1.98992	39	0.47636	-0.0041805	-1.50319
2	1	0	1	146.845	-1.02275	-1.02148	6.71264	-1.98806	39	0.449867	-0.00685679	-1.47134
2	1	0	1	147.178	-1.01941	-1.01801	9.17606	-1.98535	39	0.418701	-0.00934129	-1.43671
2	1	0	1	147.545	-1.01575	-1.01973	11.2628	-1.98152	38	0.384437	-0.011485	-1.40417
2	1	0	1	147.878	-1.01241	-1.01233	12.309	-1.97754	38	0.357552	-0.0124607	-1.36988
2	1	0	1	148.212	-1.00908	-1.01241	12.5844	-1.97334	38	0.336082	-0.0127406	-1.34849
2	1	0	1	148.545	-1.00575	-1.00718	12.5446	-1.96911	38	0.320744	-0.0126347	-1.32792
2	1	0	1	148.878	-1.00241	-1.00314	12.5222	-1.96489	38	0.308911	-0.0125615	-1.31205
2	1	0	1	149.212	-0.999079	-0.999889	12.6677	-1.96065	38	0.29836	-0.0126663	-1.29825
2	1	0	1	149.545	-0.995745	-0.998428	12.868	-1.95635	38	0.288243	-0.0128477	-1.28667
2	1	0	1	149.879	-0.992411	-0.994474	13.1649	-1.95197	38	0.278969	-0.0130922	-1.27344
2	1	0	1	150.212	-0.989077	-0.988378	13.6257	-1.94745	38	0.268247	-0.0134673	-1.25663
2	1	0	1	150.545	-0.985743	-0.987202	14.1859	-1.94277	38	0.256972	-0.0140044	-1.24417
2	1	0	1	150.879	-0.98241	-0.982498	14.7397	-1.9379	38	0.242893	-0.0144817	-1.22539
2	1	0	1	151.212	-0.979077	-0.978192	15.2155	-1.93285	38	0.223398	-0.0148837	-1.20159
2	1	0	1	151.545	-0.975743	-0.976807	15.5508	-1.92767	38	0.185233	-0.0151902	-1.16204
2	1	0	1	151.879	-0.972409	-0.972896	15.675	-1.92242	38	0.0765726	-0.0152501	-1.04947
2	1	0	1	152.212	-0.969075	-0.967245	15.9349	-1.9171	38	-0.124609	-0.0154129	-0.842636
2	1	0	1	152.546	-0.965741	-0.966637	16.2918	-1.91168	38	-0.636643	-0.0157483	-0.329994
2	1	0	1	152.879	-0.962407	-0.961944	16.8433	-1.9061	38	-0.826781	-0.0162023	-0.135164
2	1	0	1	153.212	-0.959074	-0.96002	17.3324	-1.90035	38	-0.877216	-0.0166395	-0.0828042
2	1	0	1	153.546	-0.955741	-0.95471	17.9305	-1.89442	38	-0.91566	-0.0171184	-0.0390493
2	1	0	1	153.879	-0.952407	-0.951366	18.6487	-1.88826	38	-0.947868	-0.0177418	-0.00349814
2	1	0	1	154.079	-0.950406	-0.950749	19.1087	-1.88447	38	-0.964953	-0.0181676	0.0142036
2	1	0	1	154.103	-0.949906	-0.951671	19.2438	-1.88401	38	-0.966656	-0.0183138	0.0149841
2	0	0	0	247.733	-1.25294	-1.25139	-203.949	-0.00725843	37	0.642081	0.25522	-1.89347
2	0	0	1	247.916	-1.25111	-1.25084	-200.355	-0.0440559	37	0.640551	0.250612	-1.89139
2	0	0	1	248.249	-1.24777	-1.24868	-196.036	-0.110047	37	0.639398	0.244785	-1.88807
2	0	0	1	248.583	-1.24444	-1.24344	-191.683	-0.174604	37	0.637738	0.238347	-1.88118
2	0	0	1	248.916	-1.24111	-1.24249	-187.417	-0.237709	37	0.636095	0.232863	-1.87858
2	0	0	1	249.249	-1.23777	-1.24016	-183.277	-0.299411	37	0.634921	0.227292	-1.87508
2	0	0	1	249.583	-1.23444	-1.23503	-179.222	-0.35976	37	0.633521	0.221345	-1.86855
2	0	0	1	249.916	-1.23111	-1.23119	-175.034	-0.41874	37	0.632033	0.2155	-1.86322
2	0	0	1	250.25	-1.22777	-1.22867	-170.879	-0.476328	37	0.630463	0.209955	-1.85914
2	0	0	1	250.583	-1.22444	-1.22543	-166.696	-0.532524	37	0.628359	0.204274	-1.85379
2	0	0	1	250.916	-1.2211	-1.22123	-162.751	-0.58737	37	0.627565	0.198756	-1.84879
2	0	0	1	251.25	-1.21777	-1.21841	-158.678	-0.640866	37	0.625523	0.193336	-1.84394
2	0	0	1	251.583	-1.21444	-1.21364	-154.87	-0.693045	37	0.624537	0.187956	-1.83817
2	0	0	1	251.916	-1.2111	-1.21097	-150.948	-0.743956	37	0.623057	0.182793	-1.83402
2	0	0	1	252.25	-1.20777	-1.208	-147.069	-0.793569	37	0.62107	0.177659	-1.82907
2	0	0	1	252.583	-1.20444	-1.2046	-143.292	-0.841893	37	0.619848	0.172609	-1.82445
2	0	0	1	252.917	-1.2011	-1.20108	-139.412	-0.88895	37	0.617621	0.167445	-1.8187
2	0	0	1	253.25	-1.19777	-1.19974	-135.621	-0.934725	37	0.616404	0.16271	-1.81615
2	0	0	1	253.583	-1.19443	-1.19552	-131.845	-0.979227	37	0.615311	0.157623	-1.81083
2	0	0	1	253.917	-1.1911	-1.18992	-128.206	-1.02249	37	0.613525	0.152556	-1.80345
2	0	0	1	254.25	-1.18777	-1.1859	-124.359	-1.06452	37	0.611628	0.147478	-1.79753
2	0	0	1	254.583	-1.18443	-1.18415	-120.717	-1.10531	37	0.610543	0.142947	-1.7947
2	0	0	1	254.917	-1.1811	-1.18053	-117.088	-1.14489	37	0.608486	0.138226	-1.78901
2	0	0	1	255.25	-1.17776	-1.1802	-113.473	-1.18325	37	0.606628	0.133921	-1.78683
2	0	0	1	255.584	-1.17443	-1.17664	-109.788	-1.2204	37	0.60539	0.129181	-1.78203
2	0	0	1	255.917	-1.1711	-1.17193	-106.263	-1.25634	37	0.603655	0.124532	-1.77558
2	0	0	1	256.25	-1.16777	-1.16881	-102.79	-1.29111	37	0.602071	0.120142	-1.77089
2	0	0	1	256.584	-1.16443	-1.16475	-99.4452	-1.32476	37	0.60022	0.115829	-1.76497
2	0	0	1	256.917	-1.1611	-1.15959	-95.8766	-1.35725	37	0.598649	0.111177	-1.75824
2	0	0	1	257.25	-1.15776	-1.15745	-92.497	-1.38859	37	0.597119	0.10706	-1.75457
2	0	0	1	257.584	-1.15443	-1.15508	-89.1125	-1.41879	37	0.595172	0.102932	-1.75025
2	0	0	1	257.917	-1.1511	-1.15173	-85.8925	-1.4479	37	0.59357	0.0989251	-1.7453
2	0	0	1	258.25	-1.14776	-1.14871	-82.5296	-1.4759	37	0.591722	0.0948024	-1.74043
2	0	0	1	258.584	-1.14443	-1.14377	-79.2762	-1.5028	37	0.590338	0.0906733	-1.7341
2	0	0	1	258.917	-1.1411	-1.1425	-76.1451	-1.52865	37	0.588344	0.0869962	-1.73085
2	0	0	1	259.251	-1.13776	-1.13965	-73.0132	-1.55344	37	0.586983	0.0832092	-1.72663
2	0	0	1	259.584	-1.13443	-1.13436	-70.0002	-1.57722	37	0.585266	0.0794054	-1.71963
2	0	0	1	259.917	-1.13109	-1.13185	-66.858	-1.59997	37	0.583503	0.0756731	-1.71535
2	0	0	1	260.251	-1.12776	-1.12806	-63.8201	-1.62169	37	0.581166	0.0719932	-1.70923
2	0	0	1	260.584	-1.12443	-1.12559	-60.885	-1.6424	37	0.579805	0.0685315	-1.70539
2	0	0	1	260.917	-1.12109	-1.12191	-57.9172	-1.66214	37	0.57791	0.0649782	-1.69982
2	0	0	1	261.251	-1.11776	-1.11914	-55.0277	-1.6809	37	0.575671	0.0615837	-1.69481
2	0	0	1	261.584	-1.11443	-1.1119	-52.3213	-1.69873	37	0.574057	0.0581763	-1.68596
2	0	0	1	261.918	-1.11109	-1.11205	-49.6092	-1.71566	37	0.572358	0.0551679	-1.68441
2	0	0	1	262.251	-1.10776	-1.1099	-47.0032	-1.7317	37	0.570206	0.052169	-1.68011
2	0	0	1	262.601	-1.10426	-1.10439	-44.2302	-1.74759	37	0.568448	0.0488474	-1.67284
2	0	0	1	262.951	-1.10076	-1.10163	-41.6355	-1.76259	38	0.566397	0.0458671	-1.66803
2	0	0	1	263.284	-1.09742	-1.09805	-39.0963	-1.77598	38	0.564369	0.0429297	-1.66242
2	0	0	1	263.618	-1.09409	-1.09437	-36.5866	-1.78853	38	0.562453	0.0400392	-1.65682
2	0	0	1	263.951	-1.09076	-1.09179	-34.1885	-1.80026	38	0.560364	0.0373266	-1.65215
2	0	0	1	264.285	-1.08742	-1.0881	-31.8777	-1.81121	38	0.558376	0.0346861	-1.64647
2	0	0	1	264.618	-1.08409	-1.08633	-29.6324	-1.8214	38	0.556028	0.0321904	-1.64235
2	0	0	1	264.951	-1.08076	-1.08077	-27.3853	-1.83084	38	0.554128	0.0295973	-1.6349
2	0	0	1	265.285	-1.07742	-1.07839	-25.2056	-1.83954	38	0.551572	0.0271815	-1.62996
2	0	0	1	265.618	-1.07409	-1.0733	-23.0369	-1.84752	38	0.54959	0.0247255	-1.62289
2	0	0	1	265.951	-1.07075	-1.07034	-20.8934	-1.85477	38	0.547092	0.022363	-1.61743
2	0	0	1	266.285	-1.06742	-1.06939	-18.8477	-1.86133	38	0.544204	0.0201555	-1.61359
2	0	0	1	266.618	-1.06409	-1.06748	-16.8623	-1.86722	38	0.541883	0.0180002	-1.60937
2	0	0	1	266.951	-1.06075	-1.06375	-14.9394	-1.87245	38	0.539237	0.0158917	-1.60298
2	0	0	1	267.285	-1.05742	-1.05683	-13.0235	-1.87705	38	0.536268	0.0137636	-1.5931
2	0	0	1	267.618	-1.05409	-1.05571	-11.0708	-1.881	38	0.53312	0.0116876	-1.58883
2	0	0	1	267.952	-1.05075	-1.05004	-9.12701	-1.88429	38	0.529506	0.00958375	-1.57955
2	0	0	1	268.285	-1.04742	-1.04861	-7.21814	-1.88695	38	0.525139	0.00756902	-1.57375
2	0	0	1	268.618	-1.04408	-1.04595	-5.30698	-1.88897	38	0.520435	0.00555084	-1.56639
2	0	0	1	268.952	-1.04075	-1.04001	-3.37131	-1.89035	39	0.513897	0.00350619	-1.55391
2	0	0	1	269.285	-1.03742	-1.03792	-1.26772	-1.89105	39	0.506339	0.0013158	-1.54426
2	0	0	1	269.618	-1.03408	-1.03546	0.958555	-1.89103	39	0.493791	-0.000992541	-1.52925
2	1	0	1	269.952	-1.03075	-1.03201	3.35821	-1.89023	39	0.47679	-0.00346571	-1.5088
2	1	0	1	270.285	-1.02742	-1.02744	5.91729	-1.88861	39	0.453164	-0.00607969	-1.48061
2	1	0	1	270.619	-1.02408	-1.02588	8.58751	-1.88611	39	0.424678	-0.00880972	-1.45055
2	1	0	1	270.985	-1.02041	-1.02072	11.5427	-1.8823	38	0.389772	-0.0117819	-1.4105
2	1	0	1	271.319	-1.01708	-1.01613	14.0528	-1.87795	38	0.356806	-0.0142794	-1.37294
2	1	0	1	271.652	-1.01375	-1.01671	16.0607	-1.87285	38	0.329259	-0.0163291	-1.34597
2	1	0	1	271.985	-1.01041	-1.01021	17.0886	-1.86724	38	0.308734	-0.017263	-1.31894
2	1	0	1	272.319	-1.00708	-1.00942	16.9367	-1.8615	38	0.294967	-0.0170962	-1.30438
2	1	0	1	272.652	-1.00375	-1.00438	16.1955	-1.85592	38	0.285883	-0.0162664	-1.29026
2	1	0	1	272.986	-1.00041	-1.00094	15.5205	-1.85057	38	0.276895	-0.0155352	-1.27784
2	1	0	1	273.319	-0.997078	-0.998873	15.1563	-1.8454	38	0.268429	-0.0151392	-1.2673
2	1	0	1	273.652	-0.993745	-0.993219	15.0454	-1.8403	38	0.258418	-0.0149434	-1.25164
2	1	0	1	273.986	-0.990411	-0.991204	15.1358	-1.83521	38	0.246738	-0.0150026	-1.23794
2	1	0	1	274.319	-0.987077	-0.986878	15.3359	-1.83006	38	0.227754	-0.0151347	-1.21463
2	1	0	1	274.652	-0.983743	-0.982121	15.5329	-1.82484	38	0.177036	-0.0152551	-1.15916
2	1	0	1	274.986	-0.980409	-0.980148	15.6846	-1.81957	38	0.0475325	-0.0153732	-1.02768
2	1	0	1	275.319	-0.977075	-0.978661	15.7216	-1.81426	38	-0.213536	-0.0153861	-0.765125
2	1	0	1	275.652	-0.973742	-0.97189	15.8483	-1.80893	38	-0.712887	-0.0154028	-0.259002
2	1	0	1	275.986	-0.970409	-0.970055	16.0925	-1.80353	38	-0.828091	-0.0156107	-0.141965
2	1	0	1	276.319	-0.967075	-0.967331	16.2805	-1.79807	38	-0.870876	-0.0157486	-0.0964546
2	1	0	1	276.653	-0.963741	-0.964668	16.5981	-1.79251	38	-0.904029	-0.0160117	-0.0606392
2	1	0	1	276.986	-0.960407	-0.959888	17.0715	-1.78683	38	-0.93336	-0.0163867	-0.0265282
2	1	0	1	277.319	-0.957073	-0.955852	17.6564	-1.78097	38	-0.95874	-0.0168769	0.00288784
2	1	0	1	277.653	-0.953739	-0.954955	18.382	-1.77488	38	-0.980016	-0.017554	0.0250605
2	1	0	1	277.919	-0.951073	-0.952601	19.0223	-1.76986	38	-0.996407	-0.0181207	0.0438057
2	1	0	0	278.01	-0.949906	-0.951756	19.8254	-1.7681	38	-1.00168	-0.0188689	0.0499223
2	0	0	0	372.073	-1.24894	-1.25012	-198.425	-0.00706629	37	0.635201	0.248055	-1.88532
2	0	0	1	372.256	-1.24711	-1.24942	-196.144	-0.0430588	37	0.634337	0.245067	-1.88376
2	0	0	1	372.59	-1.24377	-1.24779	-191.905	-0.107646	37	0.632296	0.239457	-1.88009
2	0	0	1	372.923	-1.24044	-1.23666	-187.815	-0.170848	37	0.631225	0.232264	-1.86788
2	0	0	1	373.256	-1.23711	-1.23838	-183.522	-0.232636	37	0.630064	0.227269	-1.86844
2	0	0	1	373.59	-1.23377	-1.23595	-179.347	-0.293012	37	0.628411	0.221664	-1.86436
2	0	0	1	373.923	-1.23044	-1.2314	-175.072	-0.351999	37	0.627029	0.215584	-1.85843
2	0	0	1	374.257	-1.2271	-1.2284	-171.145	-0.409621	37	0.625562	0.210234	-1.85396
2	0	0	1	374.59	-1.22377	-1.22379	-166.882	-0.465876	37	0.623998	0.204229	-1.84779
2	0	0	1	374.923	-1.22044	-1.22259	-162.867	-0.520748	37	0.622571	0.19912	-1.84516
2	0	0	1	375.257	-1.2171	-1.21715	-159.351	-0.57436	37	0.621042	0.193955	-1.8382
2	0	0	1	375.59	-1.21377	-1.21338	-155.367	-0.626712	37	0.619325	0.188519	-1.83271
2	0	0	1	375.923	-1.21044	-1.21133	-151.35	-0.677728	37	0.617526	0.183335	-1.82886
2	0	0	1	376.257	-1.2071	-1.20855	-147.402	-0.727428	37	0.616197	0.178142	-1.82475
2	0	0	1	376.59	-1.20377	-1.20444	-143.58	-0.77584	37	0.615074	0.172933	-1.81951
2	0	0	1	376.924	-1.20043	-1.20104	-139.534	-0.822933	37	0.61302	0.167586	-1.81406
2	0	0	1	377.257	-1.1971	-1.19743	-135.785	-0.868731	37	0.611786	0.162594	-1.80922
2	0	0	1	377.59	-1.19377	-1.1943	-131.9	-0.913256	37	0.610054	0.157528	-1.80435
2	0	0	1	377.924	-1.19043	-1.19057	-128.196	-0.956505	37	0.608483	0.152626	-1.79905
2	0	0	1	378.257	-1.1871	-1.18748	-124.304	-0.998489	37	0.606758	0.147608	-1.79424
2	0	0	1	378.59	-1.18377	-1.18433	-120.609	-1.03921	37	0.605295	0.14284	-1.78962
2	0	0	1	378.924	-1.18043	-1.18055	-116.792	-1.07868	37	0.603569	0.137878	-1.78412
2	0	0	1	379.257	-1.1771	-1.17697	-113.025	-1.11689	37	0.602169	0.133026	-1.77914
2	0	0	1	379.591	-1.17376	-1.17349	-109.644	-1.15391	37	0.600497	0.128666	-1.77399
2	0	0	1	379.924	-1.17043	-1.17071	-105.926	-1.18974	37	0.598806	0.124009	-1.76952
2	0	0	1	380.257	-1.1671	-1.16709	-102.305	-1.22434	37	0.597306	0.119398	-1.76439
2	0	0	1	380.591	-1.16376	-1.16457	-98.6496	-1.25773	37	0.595313	0.114884	-1.75988
2	0	0	1	380.924	-1.16043	-1.16095	-95.0623	-1.28992	37	0.593673	0.110363	-1.75462
2	0	0	1	381.257	-1.1571	-1.15773	-91.6703	-1.32094	37	0.59191	0.10613	-1.74965
2	0	0	1	381.591	-1.15376	-1.15499	-88.1455	-1.35082	37	0.590105	0.101807	-1.74509
2	0	0	1	381.924	-1.15043	-1.1523	-84.8465	-1.37955	37	0.588451	0.0977684	-1.74075
2	0	0	1	382.258	-1.14709	-1.1483	-81.502	-1.40718	37	0.587089	0.0935887	-1.73539
2	0	0	1	382.591	-1.14376	-1.14538	-78.1555	-1.43369	37	0.585125	0.0895178	-1.7305
2	0	0	1	382.924	-1.14043	-1.14078	-74.8901	-1.45909	37	0.583537	0.0854329	-1.72431
2	0	0	1	383.258	-1.13709	-1.13702	-71.6992	-1.48342	37	0.581667	0.0815235	-1.71869
2	0	0	1	383.591	-1.13376	-1.13354	-68.4887	-1.50669	37	0.579709	0.0776348	-1.71325
2	0	0	1	383.924	-1.13043	-1.13164	-65.5569	-1.52894	37	0.57801	0.074187	-1.70965
2	0	0	1	384.258	-1.12709	-1.12778	-62.5258	-1.5502	37	0.576185	0.0705151	-1.70396
2	0	0	1	384.591	-1.12376	-1.1241	-59.4446	-1.57043	37	0.574368	0.0668217	-1.69847
2	0	0	1	384.924	-1.12043	-1.12322	-56.5013	-1.58966	37	0.572446	0.0634635	-1.69567
2	0	0	1	385.258	-1.11709	-1.11593	-53.6352	-1.60793	37	0.570525	0.0598532	-1.68646
2	0	0	1	385.591	-1.11376	-1.1146	-50.7754	-1.62523	37	0.568673	0.0565944	-1.68327
2	0	0	1	385.925	-1.11042	-1.11145	-48.017	-1.64161	37	0.566558	0.0533685	-1.67801
2	0	0	1	386.275	-1.10692	-1.10704	-45.2887	-1.65782	37	0.56486	0.0501364	-1.6719
2	0	0	1	386.625	-1.10342	-1.10192	-42.4161	-1.67308	38	0.562862	0.0467391	-1.66478
2	0	0	1	386.958	-1.10009	-1.10082	-39.7751	-1.68669	38	0.560364	0.0437852	-1.66118
2	0	0	1	387.291	-1.09676	-1.0958	-37.321	-1.69946	38	0.558631	0.0408965	-1.65444
2	0	0	1	387.625	-1.09342	-1.09663	-34.8664	-1.71141	38	0.556855	0.0382354	-1.65348
2	0	0	1	387.958	-1.09009	-1.0886	-32.3917	-1.72253	38	0.554518	0.0352617	-1.64312
2	0	0	1	388.292	-1.08675	-1.08739	-30.0374	-1.73286	38	0.552255	0.0326624	-1.63965
2	0	0	1	388.625	-1.08342	-1.08527	-27.7019	-1.7424	38	0.550199	0.0300639	-1.63546
2	0	0	1	388.958	-1.08009	-1.07839	-25.443	-1.75118	38	0.548088	0.0274376	-1.62648
2	0	0	1	389.292	-1.07675	-1.07331	-23.3172	-1.75922	38	0.545736	0.0250265	-1.61904
2	0	0	1	389.625	-1.07342	-1.07198	-21.1662	-1.76656	38	0.543307	0.0226897	-1.61529
2	0	0	1	389.958	-1.07009	-1.06633	-19.0532	-1.77319	38	0.540592	0.0203171	-1.60692
2	0	0	1	390.292	-1.06675	-1.06573	-16.93	-1.77912	38	0.53863	0.0180428	-1.60436
2	0	0	1	390.625	-1.06342	-1.06589	-14.958	-1.78436	38	0.535413	0.0159436	-1.6013
2	0	0	1	390.959	-1.06008	-1.06006	-12.9525	-1.78894	38	0.532503	0.0137305	-1.59257
2	0	0	1	391.292	-1.05675	-1.05825	-10.9484	-1.79286	38	0.529489	0.0115862	-1.58774
2	0	0	1	391.625	-1.05342	-1.05215	-9.02664	-1.79612	38	0.52588	0.00949741	-1.57803
2	0	0	1	391.959	-1.05009	-1.05119	-7.14718	-1.79875	38	0.521737	0.00751308	-1.57293
2	0	0	1	392.292	-1.04675	-1.04703	-5.24922	-1.80075	38	0.517078	0.00549607	-1.56411
2	0	0	1	392.625	-1.04342	-1.04479	-3.36393	-1.80213	38	0.510921	0.0035146	-1.55571
2	0	0	1	392.959	-1.04008	-1.03929	-1.38394	-1.80287	39	0.503203	0.00143832	-1.54249
2	1	0	1	393.292	-1.03675	-1.03679	0.711504	-1.80292	39	0.491965	-0.000737681	-1.52876
2	1	0	1	393.625	-1.03342	-1.03526	2.95582	-1.80225	39	0.477074	-0.00306002	-1.51233
2	1	0	1	393.959	-1.03008	-1.02976	5.37125	-1.80079	39	0.455417	-0.00553108	-1.48517
2	1	0	1	394.292	-1.02675	-1.02526	7.97354	-1.7985	39	0.429173	-0.00817496	-1.45443
2	1	0	1	394.626	-1.02341	-1.02494	10.715	-1.79531	39	0.398332	-0.0109822	-1.42327
2	1	0	1	394.959	-1.02008	-1.02097	13.461	-1.7912	38	0.364814	-0.0137433	-1.38579
2	1	0	1	395.292	-1.01675	-1.0161	16.0166	-1.78622	38	0.335084	-0.0162745	-1.35118
2	1	0	1	395.626	-1.01341	-1.01424	18.0024	-1.78049	38	0.311091	-0.0182588	-1.32533
2	1	0	1	395.959	-1.01008	-1.01173	18.7866	-1.7743	38	0.294449	-0.019007	-1.30618
2	1	0	1	396.292	-1.00675	-1.00577	18.2336	-1.76809	38	0.284817	-0.0183388	-1.29059
2	1	0	1	396.626	-1.00341	-1.00391	17.2165	-1.76215	38	0.276449	-0.0172839	-1.28036
2	1	0	1	396.959	-1.00008	-0.999834	16.4328	-1.75652	38	0.26863	-0.0164301	-1.26846
2	1	0	1	397.293	-0.996745	-0.997375	15.9595	-1.75109	38	0.260374	-0.0159176	-1.25775
2	1	0	1	397.626	-0.993411	-0.993577	15.7563	-1.74577	38	0.250335	-0.0156551	-1.24391
2	1	0	1	397.959	-0.990077	-0.991441	15.7344	-1.74048	38	0.235709	-0.0155998	-1.22715
2	1	0	1	398.293	-0.986744	-0.98856	15.7486	-1.7352	38	0.196784	-0.0155684	-1.18534
2	1	0	1	398.626	-0.98341	-0.984862	15.7539	-1.72991	38	0.0845964	-0.0155154	-1.06946
2	1	0	1	398.959	-0.980077	-0.980966	15.7854	-1.72462	38	-0.135925	-0.0154849	-0.845041
2	1	0	1	399.293	-0.976743	-0.975537	15.7962	-1.71932	38	-0.650505	-0.0154098	-0.325032
2	1	0	1	399.626	-0.973409	-0.973703	16.0132	-1.71399	38	-0.817743	-0.0155921	-0.15596
2	1	0	1	399.96	-0.970075	-0.969606	16.128	-1.7086	38	-0.862922	-0.0156378	-0.106684
2	1	0	1	400.293	-0.966741	-0.96786	16.4234	-1.70313	38	-0.896785	-0.0158956	-0.0710744
2	1	0	1	400.626	-0.963407	-0.963143	16.8584	-1.69755	38	-0.927124	-0.016237	-0.0360186
2	1	0	1	400.96	-0.960074	-0.959002	17.391	-1.6918	38	-0.953549	-0.016678	-0.00545299
2	1	0	1	401.293	-0.956741	-0.95467	18.0682	-1.68586	38	-0.976788	-0.0172492	0.0221179
2	1	0	1	401.626	-0.953407	-0.951523	18.8629	-1.67966	38	-0.997709	-0.0179485	0.0461859
2	1	0	1	401.876	-0.950906	-0.949193	19.4986	-1.67486	38	-1.01245	-0.0185079	0.0632581
2	1	0	0	401.951	-0.949906	-0.950292	19.9459	-1.6734	38	-1.0185	-0.0189545	0.068204
2	0	0	0	496.814	-1.25027	-1.25919	-202.42	-0.0072072	37	0.631286	0.254885	-1.89048
2	0	0	1	496.997	-1.24844	-1.25075	-199.378	-0.043803	37	0.631122	0.249372	-1.88187
2	0	0	1	497.33	-1.24511	-1.24238	-194.957	-0.109448	37	0.629206	0.242212	-1.87159
2	0	0	1	497.664	-1.24177	-1.23569	-190.875	-0.173682	37	0.627796	0.235863	-1.86348
2	0	0	1	497.997	-1.23844	-1.23637	-186.685	-0.236513	37	0.626455	0.230811	-1.86282
2	0	0	1	498.33	-1.23511	-1.2378	-182.59	-0.297964	37	0.624766	0.226009	-1.86256
2	0	0	1	498.664	-1.23177	-1.23388	-178.527	-0.358071	37	0.623407	0.220281	-1.85729
2	0	0	1	498.997	-1.22844	-1.22911	-174.493	-0.416821	37	0.622526	0.214472	-1.85164
2	0	0	1	499.331	-1.2251	-1.22803	-170.388	-0.474221	37	0.620886	0.209241	-1.84891
2	0	0	1	499.664	-1.22177	-1.22127	-166.404	-0.530267	37	0.61924	0.203223	-1.84051
2	0	0	1	499.997	-1.21844	-1.21944	-162.421	-0.584984	37	0.617699	0.198063	-1.83714
2	0	0	1	500.331	-1.2151	-1.21367	-158.495	-0.63837	37	0.61645	0.19236	-1.83012
2	0	0	1	500.664	-1.21177	-1.21236	-154.744	-0.690476	37	0.614935	0.187605	-1.82729
2	0	0	1	500.997	-1.20844	-1.20935	-150.788	-0.741313	37	0.613328	0.182356	-1.82268
2	0	0	1	501.331	-1.2051	-1.20514	-146.904	-0.790835	37	0.612167	0.17704	-1.81731
2	0	0	1	501.664	-1.20177	-1.20289	-142.991	-0.839061	37	0.610511	0.172002	-1.8134
2	0	0	1	501.998	-1.19843	-1.19913	-138.981	-0.885968	37	0.608992	0.166657	-1.80812
2	0	0	1	502.331	-1.1951	-1.19577	-135.319	-0.931596	37	0.607694	0.16181	-1.80346
2	0	0	1	502.664	-1.19177	-1.19173	-131.487	-0.97596	37	0.605816	0.156697	-1.79755
2	0	0	1	502.998	-1.18843	-1.19098	-127.668	-1.01904	37	0.604405	0.152049	-1.79538
2	0	0	1	503.331	-1.1851	-1.18633	-124.071	-1.06091	37	0.602803	0.147189	-1.78913
2	0	0	1	503.664	-1.18177	-1.18344	-120.21	-1.10152	37	0.601489	0.142261	-1.78493
2	0	0	1	503.998	-1.17843	-1.17949	-116.538	-1.14089	37	0.600289	0.137454	-1.77977
2	0	0	1	504.331	-1.1751	-1.17585	-112.825	-1.17902	37	0.597897	0.132664	-1.77374
2	0	0	1	504.665	-1.17176	-1.17226	-109.349	-1.21596	37	0.596574	0.128186	-1.76884
2	0	0	1	504.998	-1.16843	-1.16874	-105.659	-1.25168	37	0.594833	0.123487	-1.76357
2	0	0	1	505.331	-1.1651	-1.16574	-102.192	-1.28621	37	0.593243	0.119129	-1.75898
2	0	0	1	505.665	-1.16176	-1.16379	-98.6689	-1.3196	37	0.59185	0.11483	-1.75564
2	0	0	1	505.998	-1.15843	-1.15808	-95.023	-1.35178	37	0.590033	0.110044	-1.74811
2	0	0	1	506.331	-1.1551	-1.15374	-91.6008	-1.38279	37	0.588569	0.105683	-1.74231
2	0	0	1	506.665	-1.15176	-1.153	-88.0582	-1.41263	37	0.586741	0.101531	-1.73975
2	0	0	1	506.998	-1.14843	-1.14828	-84.6629	-1.44132	37	0.585081	0.0972168	-1.73336
2	0	0	1	507.331	-1.1451	-1.14467	-81.3689	-1.46888	37	0.583331	0.0931404	-1.728
2	0	0	1	507.665	-1.14176	-1.14151	-78.0798	-1.49535	37	0.58158	0.0891289	-1.72309
2	0	0	1	507.998	-1.13843	-1.13908	-74.7326	-1.52073	37	0.580156	0.0851266	-1.71924
2	0	0	1	508.332	-1.13509	-1.13646	-71.5237	-1.54501	37	0.578078	0.0812839	-1.71454
2	0	0	1	508.665	-1.13176	-1.13067	-68.2248	-1.56821	37	0.576112	0.0771394	-1.70678
2	0	0	1	508.998	-1.12843	-1.1284	-65.137	-1.59034	37	0.574632	0.0735007	-1.70303
2	0	0	1	509.332	-1.12509	-1.12589	-62.1279	-1.61146	37	0.572472	0.0699492	-1.69836
2	0	0	1	509.665	-1.12176	-1.12259	-59.0028	-1.63155	37	0.571282	0.0662362	-1.69388
2	0	0	1	509.998	-1.11843	-1.12064	-55.9806	-1.65062	37	0.569084	0.0627339	-1.68972
2	0	0	1	510.332	-1.11509	-1.11551	-53.1124	-1.66871	37	0.567242	0.0592474	-1.68275
2	0	0	1	510.665	-1.11176	-1.11241	-50.1481	-1.68582	37	0.565099	0.0557852	-1.67751
2	0	0	1	510.999	-1.10842	-1.10686	-47.2845	-1.70197	37	0.563327	0.0523375	-1.67019
2	0	0	1	511.349	-1.10492	-1.10749	-44.5419	-1.71791	37	0.561141	0.0493297	-1.66863
2	0	0	1	511.699	-1.10142	-1.1042	-41.6152	-1.7329	38	0.558733	0.0459514	-1.66293
2	0	0	1	512.032	-1.09809	-1.09608	-38.9854	-1.74624	38	0.557049	0.0427312	-1.65313
2	0	0	1	512.365	-1.09476	-1.09389	-36.4114	-1.75872	38	0.555083	0.0398303	-1.64898
2	0	0	1	512.699	-1.09142	-1.09003	-33.8458	-1.77035	38	0.552856	0.0368929	-1.64288
2	0	0	1	513.032	-1.08809	-1.08935	-31.3319	-1.78113	38	0.551141	0.0341313	-1.64049
2	0	0	1	513.366	-1.08475	-1.08394	-28.9007	-1.79109	38	0.548603	0.0313265	-1.63254
2	0	0	1	513.699	-1.08142	-1.08426	-26.5753	-1.80025	38	0.546669	0.0288145	-1.63093
2	0	0	1	514.032	-1.07809	-1.08014	-24.2363	-1.80863	38	0.544145	0.0261786	-1.62428
2	0	0	1	514.366	-1.07475	-1.0757	-21.9745	-1.81626	38	0.541828	0.0236381	-1.61753
2	0	0	1	514.699	-1.07142	-1.07289	-19.7892	-1.82314	38	0.539053	0.0212316	-1.61194
2	0	0	1	515.032	-1.06809	-1.07216	-17.6195	-1.8293	38	0.536837	0.0188909	-1.609
2	0	0	1	515.366	-1.06475	-1.06423	-15.5133	-1.83475	38	0.53361	0.0165097	-1.59784
2	0	0	1	515.699	-1.06142	-1.05978	-13.4349	-1.8395	38	0.530836	0.0142381	-1.59062
2	0	0	1	516.032	-1.05809	-1.05918	-11.3761	-1.84356	38	0.527552	0.0120493	-1.58673
2	0	0	1	516.366	-1.05475	-1.05776	-9.37128	-1.84694	38	0.523814	0.00991261	-1.58158
2	0	0	1	516.699	-1.05142	-1.05164	-7.45133	-1.84968	38	0.520274	0.00783614	-1.57192
2	0	0	1	517.033	-1.04808	-1.04839	-5.56335	-1.85178	38	0.515265	0.00583253	-1.56365
2	0	0	1	517.366	-1.04475	-1.04753	-3.70834	-1.85326	38	0.510276	0.00388458	-1.5578
2	0	0	1	517.699	-1.04142	-1.04027	-1.7405	-1.85411	39	0.502466	0.00181058	-1.54273
2	0	0	1	518.033	-1.03808	-1.03711	0.329286	-1.85428	39	0.49297	-0.000341507	-1.53008
2	1	0	1	518.366	-1.03475	-1.03577	2.52152	-1.85374	39	0.478287	-0.00261171	-1.51406
2	1	0	1	518.699	-1.03142	-1.03109	4.87809	-1.85244	39	0.458818	-0.00502974	-1.48991
2	1	0	1	519.033	-1.02808	-1.02793	7.46585	-1.85031	39	0.434229	-0.00767434	-1.46216
2	1	0	1	519.366	-1.02475	-1.02454	10.2242	-1.84728	39	0.403899	-0.0104751	-1.42844
2	1	0	1	519.7	-1.02141	-1.02356	13.0399	-1.84332	38	0.369779	-0.0133471	-1.39334
2	1	0	1	520.033	-1.01808	-1.01891	15.7149	-1.83846	38	0.339527	-0.016012	-1.35843
2	1	0	1	520.366	-1.01475	-1.0141	17.8701	-1.8328	38	0.314327	-0.0181221	-1.32843
2	1	0	1	520.7	-1.01141	-1.01323	18.9326	-1.82661	38	0.296503	-0.0191831	-1.30973
2	1	0	1	521.033	-1.00808	-1.00993	18.5135	-1.82032	38	0.286102	-0.0186973	-1.29603
2	1	0	1	521.366	-1.00475	-1.0046	17.4514	-1.81429	38	0.278998	-0.0175317	-1.2836
2	1	0	1	521.7	-1.00141	-1.00103	16.5286	-1.8086	38	0.272045	-0.0165456	-1.27308
2	1	0	1	522.033	-0.998078	-1.00062	15.9444	-1.80315	38	0.264815	-0.0159543	-1.26544
2	1	0	1	522.367	-0.994744	-0.996618	15.6423	-1.79785	38	0.25681	-0.0155894	-1.25343
2	1	0	1	522.7	-0.99141	-0.993374	15.572	-1.79262	38	0.247021	-0.0154688	-1.2404
2	1	0	1	523.033	-0.988077	-0.98815	15.6152	-1.78738	38	0.229589	-0.0154302	-1.21774
2	1	0	1	523.367	-0.984743	-0.986068	15.5712	-1.78215	38	0.175458	-0.0153543	-1.16153
2	1	0	1	523.7	-0.98141	-0.981294	15.552	-1.77693	38	0.0383001	-0.015261	-1.01959
2	1	0	1	524.033	-0.978076	-0.976867	15.5552	-1.77171	38	-0.279923	-0.0151954	-0.696944
2	1	0	1	524.367	-0.974742	-0.9728	15.7668	-1.76645	38	-0.753884	-0.0153379	-0.218915
2	1	0	1	524.7	-0.971408	-0.970859	16.0058	-1.76112	38	-0.842783	-0.0155394	-0.128076
2	1	0	1	525.034	-0.968074	-0.967765	16.2786	-1.7557	38	-0.882969	-0.0157538	-0.0847954
2	1	0	1	525.367	-0.964741	-0.966337	16.7423	-1.75016	38	-0.915811	-0.0161787	-0.0505258
2	1	0	1	525.7	-0.961407	-0.961305	17.3046	-1.74444	38	-0.945654	-0.016635	-0.0156506
2	1	0	1	526.034	-0.958074	-0.959175	17.9801	-1.73852	38	-0.972159	-0.017246	0.0129843
2	1	0	1	526.367	-0.95474	-0.956233	18.7882	-1.73235	38	-0.995373	-0.0179659	0.0391404
2	1	0	1	526.684	-0.951573	-0.951116	19.6094	-1.72624	38	-1.01527	-0.0186508	0.0641512
2	1	0	0	526.824	-0.949906	-0.950266	20.2377	-1.72346	38	-1.02548	-0.0192312	0.0752179
2	0	0	0	620.954	-1.25294	-1.25363	-213.262	-0.00759029	37	0.632601	0.267352	-1.88623
2	0	0	1	621.137	-1.25111	-1.252	-207.9	-0.0457921	37	0.630974	0.26029	-1.88297
2	0	0	1	621.471	-1.24777	-1.24818	-203.287	-0.114257	37	0.629598	0.253739	-1.87778
2	0	0	1	621.804	-1.24444	-1.24506	-199.046	-0.181254	37	0.628608	0.247824	-1.87367
2	0	0	1	622.137	-1.24111	-1.2422	-194.846	-0.246825	37	0.627057	0.242038	-1.86926
2	0	0	1	622.471	-1.23777	-1.23801	-190.475	-0.310968	37	0.625548	0.235809	-1.86355
2	0	0	1	622.804	-1.23444	-1.2346	-186.369	-0.373714	37	0.624423	0.230092	-1.85903
2	0	0	1	623.137	-1.23111	-1.2309	-182.169	-0.435082	37	0.622895	0.224232	-1.85379
2	0	0	1	623.471	-1.22777	-1.22868	-178.078	-0.495059	37	0.621454	0.2188	-1.85013
2	0	0	1	623.804	-1.22444	-1.22443	-174.153	-0.553711	37	0.619737	0.213238	-1.84417
2	0	0	1	624.138	-1.2211	-1.22016	-170.008	-0.611009	37	0.618196	0.207436	-1.83835
2	0	0	1	624.471	-1.21777	-1.21756	-165.82	-0.666895	37	0.616524	0.201895	-1.83408
2	0	0	1	624.804	-1.21444	-1.21563	-161.654	-0.721389	37	0.615201	0.196512	-1.83084
2	0	0	1	625.138	-1.2111	-1.21325	-157.576	-0.774533	37	0.61394	0.191179	-1.82719
2	0	0	1	625.471	-1.20777	-1.20901	-153.841	-0.82637	37	0.612171	0.185995	-1.82118
2	0	0	1	625.804	-1.20444	-1.20425	-149.735	-0.876899	37	0.61092	0.180319	-1.81517
2	0	0	1	626.138	-1.2011	-1.20263	-145.817	-0.92609	37	0.609238	0.175364	-1.81187
2	0	0	1	626.471	-1.19777	-1.19532	-141.931	-0.973978	37	0.607611	0.169653	-1.80293
2	0	0	1	626.804	-1.19443	-1.19196	-138.133	-1.02057	37	0.606263	0.164649	-1.79822
2	0	0	1	627.138	-1.1911	-1.19064	-134.18	-1.06588	37	0.604843	0.15976	-1.79548
2	0	0	1	627.471	-1.18777	-1.18867	-130.268	-1.10989	37	0.603459	0.154845	-1.79213
2	0	0	1	627.805	-1.18443	-1.18371	-126.466	-1.1526	37	0.601983	0.149699	-1.7857
2	0	0	1	628.138	-1.1811	-1.18007	-122.748	-1.19407	37	0.600114	0.144851	-1.78018
2	0	0	1	628.471	-1.17776	-1.18291	-118.886	-1.23427	37	0.598901	0.140631	-1.78181
2	0	0	1	628.805	-1.17443	-1.17193	-115.277	-1.27323	37	0.596719	0.135096	-1.76864
2	0	0	1	629.138	-1.1711	-1.17302	-111.487	-1.31093	37	0.595816	0.130777	-1.76884
2	0	0	1	629.471	-1.16777	-1.169	-107.841	-1.3474	37	0.593822	0.126066	-1.76282
2	0	0	1	629.805	-1.16443	-1.16398	-104.15	-1.38265	37	0.592265	0.121228	-1.75624
2	0	0	1	630.138	-1.1611	-1.16408	-100.481	-1.41668	37	0.59125	0.116968	-1.75534
2	0	0	1	630.472	-1.15776	-1.16118	-96.8711	-1.44949	37	0.589081	0.112485	-1.75026
2	0	0	1	630.805	-1.15443	-1.1554	-93.2942	-1.48111	37	0.587501	0.107792	-1.7429
2	0	0	1	631.138	-1.1511	-1.15446	-89.751	-1.51153	37	0.585411	0.103614	-1.73987
2	0	0	1	631.472	-1.14776	-1.14491	-86.2343	-1.54077	37	0.583729	0.0987302	-1.72864
2	0	0	1	631.805	-1.14443	-1.14212	-82.8751	-1.56886	37	0.582383	0.0946531	-1.7245
2	0	0	1	632.138	-1.1411	-1.14349	-79.4604	-1.59584	37	0.580516	0.0908623	-1.72401
2	0	0	1	632.472	-1.13776	-1.13899	-76.0953	-1.62167	37	0.578602	0.0866715	-1.71759
2	0	0	1	632.805	-1.13443	-1.13522	-72.7094	-1.64639	37	0.576806	0.0825415	-1.71203
2	0	0	1	633.139	-1.13109	-1.12969	-69.3912	-1.66998	37	0.57495	0.0783903	-1.70464
2	0	0	1	633.472	-1.12776	-1.12868	-66.1923	-1.69249	37	0.573443	0.07471	-1.70212
2	0	0	1	633.805	-1.12443	-1.12507	-63.0945	-1.71395	37	0.571638	0.0709856	-1.69671
2	0	0	1	634.139	-1.12109	-1.12207	-59.9354	-1.73435	37	0.569453	0.0672515	-1.69152
2	0	0	1	634.472	-1.11776	-1.11842	-56.7916	-1.75372	37	0.56801	0.0635167	-1.68643
2	0	0	1	634.805	-1.11443	-1.1141	-53.7823	-1.77206	37	0.565798	0.0599189	-1.6799
2	0	0	1	635.139	-1.11109	-1.11388	-50.831	-1.7894	37	0.564185	0.0566198	-1.67807
2	0	0	1	635.472	-1.10776	-1.10721	-47.8698	-1.80576	37	0.562007	0.0530019	-1.66922
2	0	0	1	635.822	-1.10426	-1.10486	-44.8503	-1.82187	37	0.559997	0.0495535	-1.66486
2	0	0	1	636.172	-1.10076	-1.10152	-41.9858	-1.837	38	0.557724	0.046248	-1.65924
2	0	0	1	636.506	-1.09742	-1.09762	-39.2656	-1.85045	38	0.555864	0.0430985	-1.65348
2	0	0	1	636.839	-1.09409	-1.09452	-36.6517	-1.86301	38	0.553509	0.0401161	-1.64803
2	0	0	1	637.172	-1.09076	-1.09147	-34.0182	-1.8747	38	0.551765	0.0371298	-1.64324
2	0	0	1	637.506	-1.08742	-1.08937	-31.4773	-1.88553	38	0.549296	0.0342905	-1.63867
2	0	0	1	637.839	-1.08409	-1.08463	-28.9707	-1.89551	38	0.547235	0.0314225	-1.63186
2	0	0	1	638.172	-1.08076	-1.07867	-26.4971	-1.90466	38	0.54501	0.0285816	-1.62368
2	0	0	1	638.506	-1.07742	-1.07736	-24.1081	-1.913	38	0.542236	0.0259732	-1.6196
2	0	0	1	638.839	-1.07409	-1.07349	-21.8149	-1.92056	38	0.539954	0.023418	-1.61344
2	0	0	1	639.173	-1.07075	-1.07156	-19.5231	-1.92736	38	0.537802	0.0209202	-1.60937
2	0	0	1	639.506	-1.06742	-1.06956	-17.2627	-1.93339	38	0.534687	0.0184635	-1.60425
2	0	0	1	639.839	-1.06409	-1.06438	-15.0458	-1.93869	38	0.53214	0.0160145	-1.59652
2	0	0	1	640.173	-1.06075	-1.0633	-12.9225	-1.94326	38	0.52885	0.0137405	-1.59215
2	0	0	1	640.506	-1.05742	-1.05646	-10.8979	-1.94713	38	0.525374	0.0115131	-1.58183
2	0	0	1	640.839	-1.05409	-1.054	-8.93044	-1.95035	38	0.522412	0.00941264	-1.57641
2	0	0	1	641.173	-1.05075	-1.05039	-7.01222	-1.95291	38	0.51794	0.00736558	-1.56833
2	0	0	1	641.506	-1.04742	-1.04683	-5.09427	-1.95484	38	0.513131	0.00533283	-1.55996
2	0	0	1	641.84	-1.04408	-1.04431	-3.30057	-1.95614	38	0.507026	0.00344683	-1.55134
2	0	0	1	642.173	-1.04075	-1.04181	-1.22452	-1.95679	39	0.498733	0.00127572	-1.54054
2	0	0	1	642.506	-1.03742	-1.03757	0.857814	-1.95676	39	0.488035	-0.000890042	-1.52561
2	1	0	1	642.84	-1.03408	-1.03403	3.08086	-1.95601	39	0.472986	-0.00318571	-1.50702
2	1	0	1	643.173	-1.03075	-1.03154	5.5348	-1.95448	39	0.451548	-0.00570936	-1.48309
2	1	0	1	643.506	-1.02742	-1.02841	8.1932	-1.95209	39	0.425696	-0.00842599	-1.45411
2	1	0	1	643.856	-1.02391	-1.02437	11.1557	-1.94857	39	0.392431	-0.0114276	-1.4168
2	1	0	1	644.206	-1.02041	-1.01914	14.1136	-1.94405	38	0.357189	-0.0143836	-1.37632
2	1	0	1	644.54	-1.01708	-1.0172	16.6103	-1.93883	38	0.328925	-0.016896	-1.34613
2	1	0	1	644.873	-1.01375	-1.01555	18.3571	-1.93291	38	0.306683	-0.0186425	-1.32223
2	1	0	1	645.207	-1.01041	-1.01054	18.7176	-1.92664	38	0.29258	-0.0189149	-1.30312
2	1	0	1	645.54	-1.00708	-1.00589	17.813	-1.92048	38	0.284678	-0.0179179	-1.29057
2	1	0	1	645.873	-1.00375	-1.00375	16.6779	-1.91467	38	0.278318	-0.0167404	-1.28206
2	1	0	1	646.207	-1.00041	-1.00094	15.8708	-1.90918	38	0.271968	-0.0158857	-1.2729
2	1	0	1	646.54	-0.997078	-0.996196	15.3959	-1.9039	38	0.265686	-0.0153374	-1.26188
2	1	0	1	646.873	-0.993745	-0.993568	15.169	-1.89874	38	0.258699	-0.0150714	-1.25227
2	1	0	1	647.207	-0.990411	-0.990987	15.1375	-1.89362	38	0.249927	-0.0150011	-1.24091
2	1	0	1	647.54	-0.987077	-0.986031	15.2265	-1.88849	38	0.236502	-0.0150138	-1.22253
2	1	0	1	647.874	-0.983743	-0.981771	15.2181	-1.88334	38	0.197107	-0.0149406	-1.17888
2	1	0	1	648.207	-0.980409	-0.983154	15.2158	-1.8782	38	0.0819024	-0.0149595	-1.06506
2	1	0	1	648.54	-0.977075	-0.979377	15.2649	-1.87305	38	-0.166622	-0.0149501	-0.812755
2	1	0	1	648.874	-0.973742	-0.973943	15.483	-1.86786	38	-0.702381	-0.0150795	-0.271562
2	1	0	1	649.207	-0.970409	-0.970684	15.8728	-1.86257	38	-0.835227	-0.0154075	-0.135457
2	1	0	1	649.54	-0.967075	-0.966803	16.2378	-1.85715	38	-0.879536	-0.0156988	-0.0872671
2	1	0	1	649.874	-0.963741	-0.961495	16.7971	-1.85158	38	-0.913984	-0.0161504	-0.0475115
2	1	0	1	650.207	-0.960407	-0.960795	17.4515	-1.8458	38	-0.945752	-0.0167673	-0.0150434
2	1	0	1	650.541	-0.957073	-0.955819	18.2479	-1.83979	38	-0.97366	-0.0174416	0.0178415
2	1	0	1	650.874	-0.953739	-0.957145	19.1019	-1.83349	38	-0.998049	-0.0182833	0.0409037
2	1	0	1	651.141	-0.951073	-0.950691	19.8212	-1.82827	38	-1.01457	-0.0188438	0.0638784
2	1	0	0	651.231	-0.949906	-0.957566	21.0305	-1.82645	38	-1.02078	-0.0201381	0.0632129