File: TS-82-25-02-120-100_2024-07-29_clean_NaOH_05_LSV_C01.txt
mode	ox/red	error	control changes	time/s	control/V	Ewe/V	<I>/mA	(Q-Qo)/C	I Range	<Ece>/V	P/W	Ewe-Ece/V
2	1	0	0	153.006	-0.950252	-0.949272	31.2748	0.00106029	38	-1.10504	-0.0296883	0.155765
2	1	0	1	153.189	-0.952087	-0.952839	26.2179	0.00594236	38	-1.09387	-0.0249815	0.14103
2	1	0	1	153.523	-0.955421	-0.955437	19.1588	0.0133701	38	-1.07432	-0.018305	0.118879
2	1	0	1	153.856	-0.958754	-0.959204	13.6992	0.0187302	38	-1.05166	-0.0131403	0.092455
2	1	0	1	154.189	-0.962087	-0.962661	9.24207	0.0224499	38	-1.02209	-0.00889698	0.0594292
2	1	0	1	154.539	-0.965588	-0.965546	5.2965	0.0248632	38	-0.977457	-0.00511402	0.0119103
2	1	0	1	154.889	-0.969089	-0.968895	1.89138	0.0260512	39	-0.916677	-0.00183255	-0.0522178
2	1	0	1	155.223	-0.972423	-0.973075	-0.957161	0.0261219	39	-0.845341	0.000931389	-0.127734
2	0	0	1	155.556	-0.975756	-0.975651	-3.526	0.0252929	39	-0.774665	0.00344015	-0.200986
2	0	0	1	155.889	-0.979089	-0.979542	-5.85502	0.0236501	39	-0.715277	0.00573524	-0.264265
2	0	0	1	156.223	-0.982423	-0.982961	-8.03076	0.0212572	39	-0.660361	0.00789392	-0.3226
2	0	0	1	156.573	-0.985924	-0.985943	-10.0681	0.0179888	39	-0.516075	0.00992659	-0.469868
2	0	0	1	156.923	-0.989425	-0.989844	-12.116	0.0140384	38	-0.0883671	0.0119929	-0.901477
2	0	0	1	157.256	-0.992758	-0.992186	-14.0815	0.00959581	38	0.245568	0.0139715	-1.23775
2	0	0	1	157.59	-0.996091	-0.997084	-15.9538	0.00451622	38	0.401594	0.0159073	-1.39868
2	0	0	1	157.923	-0.999425	-0.998518	-17.5587	-0.00113862	38	0.427357	0.0175327	-1.42588
2	0	0	1	158.256	-1.00276	-1.00383	-19.4869	-0.00738637	38	0.433336	0.0195616	-1.43717
2	0	0	1	158.59	-1.00609	-1.00527	-21.3715	-0.01427	38	0.438221	0.0214841	-1.44349
2	0	0	1	158.923	-1.00943	-1.00731	-23.2939	-0.0217881	38	0.443426	0.0234641	-1.45073
2	0	0	1	159.256	-1.01276	-1.0126	-25.2716	-0.0299552	38	0.450314	0.0255901	-1.46291
2	0	0	1	159.59	-1.01609	-1.01529	-27.1705	-0.0387732	38	0.465093	0.0275859	-1.48038
2	0	0	1	159.923	-1.01943	-1.01974	-28.4572	-0.0481142	38	0.5034	0.0290189	-1.52314
2	0	0	1	160.257	-1.02276	-1.02379	-30.2922	-0.0579751	38	0.542016	0.031013	-1.56581
2	0	0	1	160.59	-1.02609	-1.02579	-32.1007	-0.0684499	38	0.551618	0.0329285	-1.57741
2	0	0	1	160.923	-1.02943	-1.03007	-33.6978	-0.079487	38	0.55507	0.0347111	-1.58514
2	0	0	1	161.257	-1.03276	-1.03448	-35.2699	-0.0910513	38	0.557594	0.0364859	-1.59207
2	0	0	1	161.59	-1.0361	-1.03487	-36.8731	-0.103145	38	0.559462	0.0381587	-1.59433
2	0	0	1	161.923	-1.03943	-1.03974	-38.5357	-0.11578	38	0.561412	0.0400672	-1.60115
2	0	0	1	162.257	-1.04276	-1.04322	-40.2859	-0.128984	38	0.56319	0.042027	-1.60641
2	0	0	1	162.59	-1.0461	-1.04745	-42.1611	-0.142799	38	0.564915	0.0441618	-1.61237
2	0	0	1	162.924	-1.04943	-1.04888	-44.2228	-0.157271	38	0.56649	0.0463844	-1.61537
2	0	0	1	163.257	-1.05276	-1.05355	-46.479	-0.172463	38	0.568424	0.0489682	-1.62198
2	0	0	1	163.59	-1.0561	-1.05417	-49.0004	-0.188453	38	0.570251	0.0516547	-1.62442
2	0	0	1	163.924	-1.05943	-1.05852	-51.8212	-0.205337	38	0.571914	0.0548536	-1.63043
2	0	0	1	164.257	-1.06277	-1.06287	-54.8629	-0.223195	38	0.574095	0.0583118	-1.63696
2	0	0	1	164.59	-1.0661	-1.0677	-58.0273	-0.242087	38	0.576038	0.0619556	-1.64374
2	0	0	1	164.924	-1.06943	-1.06946	-61.3293	-0.262066	38	0.578028	0.0655893	-1.64749
2	0	0	1	165.257	-1.07277	-1.07259	-64.5874	-0.283137	38	0.579884	0.069276	-1.65248
2	0	0	1	165.591	-1.0761	-1.07649	-67.8255	-0.305291	38	0.581982	0.0730135	-1.65847
2	0	0	1	165.924	-1.07944	-1.08058	-71.0604	-0.328524	38	0.583743	0.0767862	-1.66432
2	0	0	1	166.257	-1.08277	-1.08225	-74.1847	-0.352815	38	0.585116	0.0802864	-1.66737
2	0	0	1	166.591	-1.0861	-1.08604	-76.9176	-0.378074	38	0.586786	0.0835353	-1.67282
2	0	0	1	166.924	-1.08943	-1.09023	-78.9585	-0.404123	38	0.587722	0.0860828	-1.67795
2	0	0	1	167.257	-1.09277	-1.09378	-80.1116	-0.430704	38	0.588484	0.0876243	-1.68226
2	0	0	1	167.591	-1.0961	-1.09617	-80.4439	-0.457524	38	0.589029	0.08818	-1.6852
2	0	0	1	167.924	-1.09944	-1.09902	-80.3384	-0.484374	38	0.588831	0.0882934	-1.68785
2	0	0	1	168.258	-1.10277	-1.1039	-80.0863	-0.511162	38	0.588839	0.0884074	-1.69274
2	0	0	1	168.591	-1.1061	-1.10661	-79.8877	-0.537873	38	0.588766	0.0884046	-1.69538
2	0	0	1	168.924	-1.10944	-1.10962	-79.7348	-0.56452	38	0.588656	0.0884756	-1.69828
2	0	0	1	169.258	-1.11277	-1.11301	-79.7092	-0.591136	38	0.589056	0.0887168	-1.70206
2	0	0	1	169.591	-1.1161	-1.11714	-80.0776	-0.617819	38	0.588962	0.089458	-1.7061
2	0	0	1	169.924	-1.11944	-1.12007	-80.7538	-0.644681	38	0.589259	0.0904499	-1.70933
2	0	0	1	170.258	-1.12277	-1.1239	-81.7557	-0.671824	38	0.589545	0.0918853	-1.71345
2	0	0	1	170.591	-1.12611	-1.12719	-83.1359	-0.699368	38	0.590461	0.0937101	-1.71765
2	0	0	1	170.925	-1.12944	-1.12955	-84.8872	-0.727439	38	0.591392	0.095884	-1.72094
2	0	0	1	171.258	-1.13277	-1.13286	-86.7785	-0.75611	38	0.592263	0.0983082	-1.72513
2	0	0	1	171.591	-1.13611	-1.13672	-88.9526	-0.785459	38	0.592911	0.101114	-1.72963
2	0	0	1	171.925	-1.13944	-1.1394	-91.2825	-0.81557	38	0.594207	0.104007	-1.73361
2	0	0	1	172.258	-1.14278	-1.14212	-93.7658	-0.846483	38	0.595198	0.107092	-1.73732
2	0	0	1	172.591	-1.14611	-1.14574	-96.5505	-0.878276	38	0.596372	0.110622	-1.74211
2	0	0	1	172.925	-1.14944	-1.14978	-99.4438	-0.911016	38	0.5978	0.114338	-1.74758
2	0	0	1	173.258	-1.15278	-1.15407	-102.485	-0.944748	38	0.599146	0.118275	-1.75322
2	0	0	1	173.591	-1.15611	-1.15666	-105.62	-0.9795	38	0.600457	0.122166	-1.75711
2	0	0	1	173.925	-1.15944	-1.15964	-108.677	-1.01529	38	0.601717	0.126026	-1.76136
2	0	0	1	174.258	-1.16278	-1.16319	-111.681	-1.0521	37	0.603067	0.129906	-1.76626
2	0	0	1	174.592	-1.16611	-1.16623	-114.896	-1.08994	37	0.604571	0.133996	-1.7708
2	0	0	1	174.925	-1.16944	-1.16971	-118.202	-1.12887	37	0.605958	0.138262	-1.77567
2	0	0	1	175.258	-1.17278	-1.17289	-121.695	-1.16893	37	0.607594	0.142734	-1.78048
2	0	0	1	175.592	-1.17611	-1.17619	-125.175	-1.21016	37	0.609074	0.14723	-1.78526
2	0	0	1	175.925	-1.17945	-1.18076	-128.73	-1.25254	37	0.610339	0.152	-1.7911
2	0	0	1	176.258	-1.18278	-1.18375	-132.244	-1.29611	37	0.611821	0.156544	-1.79557
2	0	0	1	176.592	-1.18611	-1.18593	-135.837	-1.34087	37	0.613155	0.161093	-1.79908
2	0	0	1	176.925	-1.18945	-1.18953	-139.291	-1.38681	37	0.614624	0.16569	-1.80415
2	0	0	1	177.259	-1.19278	-1.19296	-142.847	-1.43391	37	0.616007	0.170411	-1.80897
2	0	0	1	177.592	-1.19611	-1.1972	-146.444	-1.48221	37	0.617335	0.175322	-1.81453
2	0	0	1	177.925	-1.19945	-1.1988	-150.159	-1.53173	37	0.618856	0.18001	-1.81766
2	0	0	1	178.259	-1.20278	-1.20282	-153.971	-1.58249	37	0.620296	0.185199	-1.82311
2	0	0	1	178.592	-1.20612	-1.20574	-157.695	-1.63452	37	0.621923	0.19014	-1.82766
2	0	0	1	178.925	-1.20945	-1.20961	-161.569	-1.6878	37	0.622853	0.195436	-1.83247
2	0	0	1	179.259	-1.21278	-1.21384	-165.353	-1.74238	37	0.624169	0.200712	-1.83801
2	0	0	1	179.592	-1.21612	-1.21635	-169.222	-1.79823	37	0.625795	0.205833	-1.84214
2	0	0	1	179.926	-1.21945	-1.21977	-173.096	-1.85538	37	0.627104	0.211138	-1.84687
2	0	0	1	180.259	-1.22278	-1.22364	-176.991	-1.91381	37	0.62841	0.216573	-1.85205
2	0	0	1	180.592	-1.22612	-1.22636	-180.889	-1.97355	37	0.629829	0.221836	-1.85619
2	0	0	1	180.926	-1.22945	-1.22999	-184.795	-2.03457	37	0.631103	0.227296	-1.8611
2	0	0	1	181.259	-1.23278	-1.23283	-188.691	-2.09689	37	0.632524	0.232625	-1.86536
2	0	0	1	181.592	-1.23612	-1.23675	-192.745	-2.16056	37	0.633851	0.238376	-1.8706
2	0	0	1	181.926	-1.23945	-1.2396	-196.65	-2.22555	37	0.635224	0.243767	-1.87482
2	0	0	1	182.259	-1.24279	-1.24398	-200.473	-2.29183	37	0.636526	0.249384	-1.8805
2	0	0	1	182.593	-1.24612	-1.24703	-204.451	-2.35941	37	0.63785	0.254956	-1.88488
2	0	0	1	182.859	-1.24879	-1.24997	-207.948	-2.41435	37	0.639113	0.259928	-1.88908
2	0	0	1	182.964	-1.24995	-1.24975	-209.391	-2.43619	37	0.639526	0.261687	-1.88928
2	1	0	1	272.246	-0.948586	-0.944233	33.3999	0.00113632	38	-1.09566	-0.0315373	0.151426
2	1	0	1	272.429	-0.95042	-0.950131	27.5164	0.00628108	38	-1.08663	-0.0261442	0.136495
2	1	0	1	272.763	-0.953754	-0.954738	20.0408	0.0140794	38	-1.07064	-0.0191337	0.115907
2	1	0	1	273.096	-0.957087	-0.958624	14.4803	0.0197297	38	-1.0537	-0.0138812	0.0950814
2	1	0	1	273.429	-0.96042	-0.960506	9.93964	0.0237099	38	-1.03266	-0.00954708	0.0721562
2	1	0	1	273.763	-0.963754	-0.96361	6.12552	0.0263073	38	-1.00343	-0.00590261	0.0398157
2	1	0	1	274.113	-0.967255	-0.967034	2.70326	0.027748	38	-0.960164	-0.00261414	-0.00686961
2	1	0	1	274.463	-0.970756	-0.970424	-0.278558	0.0281212	39	-0.902329	0.00027032	-0.0680954
2	0	0	1	274.796	-0.974089	-0.974939	-2.80389	0.0275404	39	-0.837705	0.00273362	-0.137234
2	0	0	1	275.13	-0.977422	-0.979382	-5.08546	0.026161	39	-0.777794	0.00498061	-0.201588
2	0	0	1	275.463	-0.980756	-0.981429	-7.20098	0.0240495	39	-0.728044	0.00706725	-0.253385
2	0	0	1	275.796	-0.98409	-0.984268	-9.18789	0.0212541	39	-0.675679	0.00904335	-0.308589
2	0	0	1	276.13	-0.987424	-0.988334	-10.9417	0.0178301	39	-0.599848	0.0108141	-0.388486
2	0	0	1	276.463	-0.990758	-0.989884	-12.8166	0.0138037	38	-0.305172	0.0126869	-0.684712
2	0	0	1	276.797	-0.994092	-0.993721	-14.789	0.0091376	38	0.144247	0.0146961	-1.13797
2	0	0	1	277.13	-0.997425	-0.998226	-16.6752	0.00383285	38	0.363217	0.0166456	-1.36144
2	0	0	1	277.463	-1.00076	-1.00032	-18.4383	-0.00208181	38	0.420621	0.0184442	-1.42094
2	0	0	1	277.797	-1.00409	-1.0045	-20.266	-0.00859483	38	0.430863	0.0203572	-1.43537
2	0	0	1	278.13	-1.00743	-1.00824	-22.0737	-0.0157136	38	0.436765	0.0222556	-1.44501
2	0	0	1	278.463	-1.01076	-1.01245	-23.8584	-0.023432	38	0.441659	0.0241554	-1.45411
2	0	0	1	278.797	-1.01409	-1.01556	-25.6354	-0.031744	38	0.447888	0.0260344	-1.46345
2	0	0	1	279.13	-1.01743	-1.01704	-27.3614	-0.0406388	38	0.458506	0.0278277	-1.47555
2	0	0	1	279.463	-1.02076	-1.02189	-28.9307	-0.0500808	38	0.48763	0.0295641	-1.50952
2	0	0	1	279.797	-1.02409	-1.02415	-30.7506	-0.0600852	38	0.531276	0.0314931	-1.55542
2	0	0	1	280.13	-1.02743	-1.02845	-32.5645	-0.0707038	38	0.546228	0.033491	-1.57468
2	0	0	1	280.464	-1.03076	-1.03068	-34.1717	-0.0818896	38	0.550333	0.03522	-1.58101
2	0	0	1	280.797	-1.0341	-1.03431	-35.7867	-0.0936123	38	0.552901	0.0370146	-1.58721
2	0	0	1	281.13	-1.03743	-1.03782	-37.4559	-0.105882	38	0.555101	0.0388726	-1.59292
2	0	0	1	281.464	-1.04076	-1.04039	-39.1961	-0.118722	38	0.556984	0.0407791	-1.59737
2	0	0	1	281.797	-1.0441	-1.04493	-41.0387	-0.132156	38	0.558915	0.0428827	-1.60385
2	0	0	1	282.13	-1.04743	-1.0482	-43.0359	-0.146231	38	0.560271	0.0451101	-1.60847
2	0	0	1	282.464	-1.05076	-1.05068	-45.2276	-0.161009	38	0.562076	0.0475195	-1.61275
2	0	0	1	282.797	-1.0541	-1.05487	-47.6879	-0.176565	38	0.563757	0.0503043	-1.61862
2	0	0	1	283.131	-1.05743	-1.0571	-50.403	-0.192986	38	0.566104	0.0532811	-1.62321
2	0	0	1	283.464	-1.06077	-1.05993	-53.4006	-0.210362	38	0.567978	0.056601	-1.62791
2	0	0	1	283.797	-1.0641	-1.06431	-56.565	-0.228768	38	0.569689	0.0602027	-1.634
2	0	0	1	284.131	-1.06743	-1.06821	-59.7847	-0.248233	38	0.571779	0.0638625	-1.63999
2	0	0	1	284.464	-1.07077	-1.07171	-63.0064	-0.268772	38	0.573684	0.0675245	-1.64539
2	0	0	1	284.797	-1.0741	-1.07517	-66.1386	-0.290377	38	0.575777	0.0711105	-1.65095
2	0	0	1	285.131	-1.07743	-1.07751	-69.1328	-0.313001	38	0.577411	0.0744909	-1.65492
2	0	0	1	285.464	-1.08077	-1.08069	-71.7855	-0.336565	38	0.578687	0.0775779	-1.65938
2	0	0	1	285.798	-1.0841	-1.0847	-73.936	-0.360925	38	0.580136	0.0801985	-1.66484
2	0	0	1	286.131	-1.08744	-1.08687	-75.2831	-0.385864	38	0.580785	0.0818232	-1.66766
2	0	0	1	286.464	-1.09077	-1.09213	-75.7923	-0.411095	38	0.580987	0.0827753	-1.67312
2	0	0	1	286.798	-1.0941	-1.09484	-75.8568	-0.436416	38	0.581372	0.0830514	-1.67622
2	0	0	1	287.131	-1.09744	-1.09881	-75.5761	-0.461706	38	0.581318	0.0830434	-1.68012
2	0	0	1	287.464	-1.10077	-1.10176	-75.2257	-0.486888	38	0.580983	0.0828809	-1.68274
2	0	0	1	287.798	-1.1041	-1.10501	-74.8876	-0.511955	38	0.58094	0.0827519	-1.68595
2	0	0	1	288.131	-1.10744	-1.10805	-74.6067	-0.536919	38	0.580874	0.0826679	-1.68892
2	0	0	1	288.465	-1.11077	-1.11078	-74.6139	-0.561839	38	0.580863	0.08288	-1.69165
2	0	0	1	288.798	-1.1141	-1.11496	-75.0804	-0.586834	38	0.58112	0.0837115	-1.69608
2	0	0	1	289.131	-1.11744	-1.11805	-75.9425	-0.612062	38	0.581496	0.0849073	-1.69954
2	0	0	1	289.465	-1.12077	-1.12109	-77.3465	-0.637665	38	0.582254	0.0867125	-1.70335
2	0	0	1	289.798	-1.12411	-1.12428	-78.9632	-0.663783	38	0.582867	0.0887769	-1.70715
2	0	0	1	290.131	-1.12744	-1.12883	-80.828	-0.690482	38	0.583834	0.0912413	-1.71267
2	0	0	1	290.465	-1.13077	-1.13139	-82.9995	-0.717855	38	0.584972	0.0939048	-1.71636
2	0	0	1	290.798	-1.13411	-1.13494	-85.2927	-0.745976	38	0.585927	0.0968017	-1.72086
2	0	0	1	291.131	-1.13744	-1.13782	-87.7619	-0.774883	38	0.587221	0.099857	-1.72504
2	0	0	1	291.465	-1.14078	-1.14139	-90.3385	-0.804642	38	0.588442	0.103112	-1.72984
2	0	0	1	291.798	-1.14411	-1.14409	-93.2181	-0.835302	38	0.589757	0.10665	-1.73385
2	0	0	1	292.132	-1.14744	-1.14847	-96.115	-0.866936	38	0.59096	0.110385	-1.73943
2	0	0	1	292.465	-1.15078	-1.15143	-99.1156	-0.899555	38	0.592213	0.114124	-1.74364
2	0	0	1	292.798	-1.15411	-1.1545	-102.272	-0.933201	38	0.593747	0.118073	-1.74825
2	0	0	1	293.132	-1.15744	-1.15761	-105.398	-0.967894	38	0.595123	0.12201	-1.75273
2	0	0	1	293.465	-1.16078	-1.16118	-108.602	-1.00365	38	0.596402	0.126106	-1.75758
2	0	0	1	293.798	-1.16411	-1.16574	-112.056	-1.04051	37	0.597884	0.130628	-1.76362
2	0	0	1	294.132	-1.16744	-1.16743	-115.494	-1.07851	37	0.59947	0.134831	-1.7669
2	0	0	1	294.465	-1.17078	-1.17205	-118.972	-1.11767	37	0.600914	0.139442	-1.77297
2	0	0	1	294.799	-1.17411	-1.17487	-122.382	-1.15798	37	0.602281	0.143783	-1.77715
2	0	0	1	295.132	-1.17745	-1.17753	-125.924	-1.19945	37	0.603833	0.148278	-1.78136
2	0	0	1	295.465	-1.18078	-1.18154	-129.601	-1.24212	37	0.605315	0.153129	-1.78685
2	0	0	1	295.799	-1.18411	-1.18532	-133.241	-1.286	37	0.606915	0.157932	-1.79223
2	0	0	1	296.132	-1.18745	-1.1883	-136.884	-1.33111	37	0.608317	0.162659	-1.79662
2	0	0	1	296.465	-1.19078	-1.19093	-140.51	-1.37742	37	0.609874	0.167337	-1.8008
2	0	0	1	296.799	-1.19411	-1.19535	-144.418	-1.42499	37	0.611168	0.17263	-1.80652
2	0	0	1	297.132	-1.19745	-1.19779	-148.228	-1.47386	37	0.612474	0.177546	-1.81026
2	0	0	1	297.466	-1.20078	-1.20231	-152.097	-1.524	37	0.614149	0.182868	-1.81646
2	0	0	1	297.799	-1.20412	-1.20472	-155.937	-1.57543	37	0.615272	0.187861	-1.82
2	0	0	1	298.132	-1.20745	-1.20923	-159.737	-1.62814	37	0.616669	0.193158	-1.8259
2	0	0	1	298.466	-1.21078	-1.21103	-163.378	-1.68206	37	0.617983	0.197856	-1.82901
2	0	0	1	298.799	-1.21412	-1.21485	-167.224	-1.73723	37	0.619362	0.203151	-1.83421
2	0	0	1	299.132	-1.21745	-1.21818	-171.076	-1.79371	37	0.620897	0.2084	-1.83907
2	0	0	1	299.466	-1.22078	-1.22191	-175.021	-1.85148	37	0.621825	0.213861	-1.84374
2	0	0	1	299.799	-1.22412	-1.22352	-178.823	-1.91054	37	0.623346	0.218793	-1.84687
2	0	0	1	300.133	-1.22745	-1.22715	-182.837	-1.9709	37	0.624928	0.224368	-1.85208
2	0	0	1	300.466	-1.23079	-1.23194	-186.701	-2.03259	37	0.626329	0.230004	-1.85827
2	0	0	1	300.799	-1.23412	-1.23472	-190.673	-2.09555	37	0.6276	0.235428	-1.86233
2	0	0	1	301.133	-1.23745	-1.23626	-194.832	-2.15988	37	0.628885	0.240864	-1.86515
2	0	0	1	301.466	-1.24079	-1.24158	-199.076	-2.22562	37	0.630231	0.247169	-1.87181
2	0	0	1	301.799	-1.24412	-1.24474	-203.302	-2.29278	37	0.631883	0.253059	-1.87663
2	0	0	1	302.133	-1.24745	-1.24798	-207.532	-2.36135	37	0.633502	0.258996	-1.88148
2	0	0	0	302.333	-1.24945	-1.25133	-210.298	-2.40303	37	0.63414	0.263153	-1.88547
2	0	0	1	302.371	-1.24995	-1.24531	-211.107	-2.41104	37	0.635278	0.262894	-1.88059