File: TS-82-25-02-120-100_2024-07-29_clean_NaOH_04_LSV_C01 (1).txt
mode	ox/red	error	control changes	time/s	control/V	Ewe/V	<I>/mA	(Q-Qo)/C	I Range	<Ece>/V	P/W	Ewe-Ece/V
2	0	0	1	123.593	-1.24395	-1.24459	-198.968	-0.00708608	37	0.644422	0.247633	-1.88901
2	0	0	1	123.777	-1.24212	-1.24275	-196.512	-0.0431589	37	0.643744	0.244215	-1.88649
2	0	0	1	124.11	-1.23879	-1.23928	-192.478	-0.107928	37	0.64256	0.238535	-1.88184
2	0	0	1	124.443	-1.23545	-1.23493	-188.327	-0.171332	37	0.641058	0.23257	-1.87599
2	0	0	1	124.777	-1.23212	-1.23289	-184.225	-0.233346	37	0.639065	0.22713	-1.87196
2	0	0	1	125.11	-1.22879	-1.22987	-180.288	-0.294015	37	0.637825	0.221731	-1.86769
2	0	0	1	125.443	-1.22545	-1.2257	-176.335	-0.353385	37	0.636528	0.216133	-1.86223
2	0	0	1	125.777	-1.22212	-1.2219	-172.39	-0.41144	37	0.63487	0.210643	-1.85677
2	0	0	1	126.11	-1.21878	-1.21873	-168.546	-0.4682	37	0.633693	0.205413	-1.85243
2	0	0	1	126.444	-1.21545	-1.2155	-164.672	-0.523674	37	0.63175	0.200159	-1.84725
2	0	0	1	126.777	-1.21212	-1.21249	-160.808	-0.577853	37	0.630531	0.194978	-1.84302
2	0	0	1	127.11	-1.20878	-1.20944	-157.185	-0.630773	37	0.629168	0.190105	-1.8386
2	0	0	1	127.444	-1.20545	-1.20572	-153.382	-0.682471	37	0.627848	0.184937	-1.83357
2	0	0	1	127.777	-1.20212	-1.20221	-149.544	-0.732875	37	0.626167	0.179783	-1.82838
2	0	0	1	128.11	-1.19878	-1.19916	-145.908	-0.782051	37	0.624944	0.174967	-1.8241
2	0	0	1	128.444	-1.19545	-1.19552	-142.259	-0.830017	37	0.623087	0.170074	-1.81861
2	0	0	1	128.777	-1.19211	-1.19223	-138.723	-0.876783	37	0.621724	0.16539	-1.81396
2	0	0	1	129.111	-1.18878	-1.1902	-135.188	-0.922369	37	0.62056	0.1609	-1.81076
2	0	0	1	129.444	-1.18545	-1.18477	-131.676	-0.966769	37	0.619006	0.156005	-1.80377
2	0	0	1	129.777	-1.18211	-1.18203	-128.189	-1.01	37	0.617411	0.151522	-1.79944
2	0	0	1	130.111	-1.17878	-1.17935	-124.64	-1.05208	37	0.616141	0.146995	-1.79549
2	0	0	1	130.444	-1.17545	-1.17517	-121.136	-1.09297	37	0.614448	0.142356	-1.78962
2	0	0	1	130.777	-1.17211	-1.17201	-117.581	-1.13269	37	0.612666	0.137805	-1.78467
2	0	0	1	131.111	-1.16878	-1.16924	-114.277	-1.17127	37	0.611239	0.133617	-1.78048
2	0	0	1	131.444	-1.16544	-1.16472	-110.802	-1.20872	37	0.609955	0.129053	-1.77468
2	0	0	1	131.777	-1.16211	-1.16336	-107.534	-1.24503	37	0.60855	0.1251	-1.77191
2	0	0	1	132.111	-1.15878	-1.15692	-104.191	-1.28025	37	0.606781	0.12054	-1.7637
2	0	0	1	132.444	-1.15544	-1.15709	-100.905	-1.31436	37	0.605131	0.116756	-1.76222
2	0	0	1	132.778	-1.15211	-1.15088	-97.5481	-1.34737	37	0.603873	0.112266	-1.75475
2	0	0	1	133.111	-1.14878	-1.14858	-94.2565	-1.37927	37	0.602127	0.108261	-1.7507
2	0	0	1	133.444	-1.14544	-1.14743	-91.08	-1.41009	37	0.600332	0.104508	-1.74777
2	0	0	1	133.778	-1.14211	-1.14383	-87.9028	-1.43985	37	0.59875	0.100546	-1.74258
2	0	0	1	134.111	-1.13877	-1.1398	-84.5459	-1.46853	37	0.597088	0.0963653	-1.73689
2	0	0	1	134.444	-1.13544	-1.13468	-81.4601	-1.49612	37	0.595715	0.092431	-1.73039
2	0	0	1	134.778	-1.13211	-1.13258	-78.4803	-1.5227	37	0.593885	0.0888852	-1.72646
2	0	0	1	135.111	-1.12877	-1.12911	-75.3947	-1.54828	37	0.592141	0.0851286	-1.72125
2	0	0	1	135.445	-1.12544	-1.12709	-72.358	-1.57284	37	0.590436	0.081554	-1.71753
2	0	0	1	135.778	-1.12211	-1.12216	-69.4019	-1.5964	37	0.588965	0.0778797	-1.71112
2	0	0	1	136.111	-1.11877	-1.11736	-66.4049	-1.61897	37	0.587484	0.0741983	-1.70484
2	0	0	1	136.445	-1.11544	-1.11571	-63.5279	-1.64056	37	0.585577	0.0708789	-1.70129
2	0	0	1	136.778	-1.1121	-1.11227	-60.5905	-1.66117	37	0.583961	0.0673932	-1.69623
2	0	0	1	137.111	-1.10877	-1.10755	-57.7311	-1.68082	37	0.582093	0.0639398	-1.68964
2	0	0	1	137.445	-1.10544	-1.10421	-55.0439	-1.69955	37	0.580604	0.0607799	-1.68481
2	0	0	1	137.778	-1.1021	-1.10231	-52.2898	-1.71737	37	0.578287	0.0576398	-1.6806
2	0	0	1	138.112	-1.09877	-1.10055	-49.5849	-1.73428	37	0.576729	0.0545707	-1.67728
2	0	0	1	138.445	-1.09544	-1.09555	-46.8167	-1.75027	37	0.574737	0.0512902	-1.67029
2	0	0	1	138.795	-1.09194	-1.09271	-44.0817	-1.76609	37	0.572868	0.0481687	-1.66558
2	0	0	1	139.145	-1.08844	-1.08948	-41.353	-1.781	38	0.571068	0.0450534	-1.66055
2	0	0	1	139.478	-1.0851	-1.08561	-38.7388	-1.79428	38	0.568946	0.0420552	-1.65456
2	0	0	1	139.812	-1.08177	-1.08034	-36.2136	-1.8067	38	0.566957	0.0391231	-1.6473
2	0	0	1	140.145	-1.07843	-1.07982	-33.7586	-1.81829	38	0.564636	0.0364532	-1.64445
2	0	0	1	140.478	-1.0751	-1.07643	-31.2538	-1.82905	38	0.562709	0.0336426	-1.63914
2	0	0	1	140.812	-1.07177	-1.07253	-28.8256	-1.839	38	0.560503	0.0309164	-1.63304
2	0	0	1	141.145	-1.06843	-1.07	-26.4008	-1.84813	38	0.557904	0.0282489	-1.62791
2	0	0	1	141.479	-1.0651	-1.06693	-23.9734	-1.85645	38	0.555404	0.0255779	-1.62233
2	0	0	1	141.812	-1.06177	-1.06259	-21.5901	-1.86398	38	0.552887	0.0229414	-1.61548
2	0	0	1	142.145	-1.05843	-1.05849	-19.2229	-1.87071	38	0.549836	0.0203472	-1.60832
2	0	0	1	142.479	-1.0551	-1.05442	-16.8547	-1.87665	38	0.547082	0.0177719	-1.6015
2	0	0	1	142.812	-1.05176	-1.05281	-14.5218	-1.88181	38	0.543625	0.0152886	-1.59643
2	0	0	1	143.145	-1.04843	-1.04794	-12.1769	-1.88618	38	0.5399	0.0127606	-1.58784
2	0	0	1	143.479	-1.0451	-1.04502	-9.83259	-1.88977	38	0.535677	0.0102752	-1.58069
2	0	0	1	143.812	-1.04176	-1.04163	-7.4438	-1.89258	38	0.530684	0.00775367	-1.57231
2	0	0	1	144.146	-1.03843	-1.03856	-5.06398	-1.89459	38	0.524108	0.00525924	-1.56267
2	0	0	1	144.479	-1.0351	-1.03559	-2.55937	-1.89578	39	0.515065	0.00265046	-1.55065
2	0	0	1	144.812	-1.03176	-1.03166	0.0490554	-1.89613	39	0.501437	-5.06087e-05	-1.5331
2	1	0	1	145.146	-1.02843	-1.02881	2.7944	-1.89557	39	0.4807	-0.0028749	-1.50951
2	1	0	1	145.479	-1.02509	-1.02554	5.6496	-1.89409	39	0.452578	-0.00579387	-1.47811
2	1	0	1	145.812	-1.02176	-1.0223	8.5565	-1.89164	39	0.419762	-0.00874727	-1.44206
2	1	0	1	146.162	-1.01826	-1.01976	11.5149	-1.88802	39	0.384281	-0.0117424	-1.40404
2	1	0	1	146.513	-1.01476	-1.0154	14.3697	-1.88343	38	0.35265	-0.014591	-1.36805
2	1	0	1	146.846	-1.01143	-1.01144	17.0226	-1.87811	38	0.332426	-0.0172173	-1.34386
2	1	0	1	147.179	-1.00809	-1.00865	18.7571	-1.87207	38	0.317082	-0.0189194	-1.32574
2	1	0	1	147.513	-1.00476	-1.00481	19.9685	-1.86555	38	0.297067	-0.0200647	-1.30188
2	1	0	1	147.846	-1.00143	-1.00234	21.5083	-1.85857	38	0.273653	-0.0215586	-1.27599
2	1	0	1	148.179	-0.998092	-0.997905	22.674	-1.85113	38	0.249312	-0.0226265	-1.24722
2	1	0	1	148.513	-0.994758	-0.996177	23.7428	-1.84333	38	0.20717	-0.0236521	-1.20335
2	1	0	1	148.846	-0.991423	-0.990845	24.1887	-1.83528	38	-0.205206	-0.0239673	-0.78564
2	1	0	1	149.18	-0.98809	-0.988709	25.2585	-1.82698	38	-0.900178	-0.0249733	-0.0885306
2	1	0	1	149.513	-0.984757	-0.985653	26.4374	-1.81829	38	-1.03543	-0.0260581	0.0497729
2	1	0	1	149.846	-0.981424	-0.981853	27.4971	-1.80924	38	-1.11338	-0.0269981	0.131525
2	1	0	1	150.18	-0.97809	-0.978855	28.4681	-1.79984	38	-1.14905	-0.0278661	0.1702
2	1	0	1	150.513	-0.974756	-0.974731	29.3935	-1.79013	38	-1.15349	-0.0286507	0.178761
2	1	0	1	150.846	-0.971422	-0.971709	30.2206	-1.78013	38	-1.14326	-0.0293656	0.171548
2	1	0	1	151.18	-0.968087	-0.967671	30.9721	-1.76986	38	-1.12966	-0.0299708	0.161993
2	1	0	1	151.513	-0.964754	-0.965234	31.4813	-1.75938	38	-1.11803	-0.0303868	0.1528
2	1	0	1	151.846	-0.961421	-0.962151	31.7053	-1.74879	38	-1.11152	-0.0305053	0.149374
2	1	0	1	152.18	-0.958088	-0.958163	31.7801	-1.73815	38	-1.10819	-0.0304505	0.150031
2	1	0	1	152.513	-0.954754	-0.954686	31.7936	-1.72749	38	-1.10682	-0.0303529	0.152138
2	1	0	1	152.83	-0.951587	-0.951889	31.883	-1.71735	38	-1.10607	-0.0303491	0.154179
2	1	0	1	152.972	-0.949919	-0.945204	32.4282	-1.71279	38	-1.10715	-0.0306513	0.161948
2	0	0	0	243	-1.24229	-1.23984	-199.056	-0.00708479	37	0.635372	0.246797	-1.87521
2	0	0	1	243.184	-1.24045	-1.24176	-196.686	-0.0431764	37	0.634392	0.244236	-1.87615
2	0	0	1	243.517	-1.23712	-1.23746	-192.408	-0.107945	37	0.63311	0.238096	-1.87057
2	0	0	1	243.85	-1.23378	-1.23728	-188.395	-0.171334	37	0.631767	0.233097	-1.86905
2	0	0	1	244.184	-1.23045	-1.23146	-184.489	-0.233385	37	0.63017	0.22719	-1.86163
2	0	0	1	244.517	-1.22712	-1.22538	-180.66	-0.294151	37	0.628703	0.221378	-1.85409
2	0	0	1	244.85	-1.22378	-1.22511	-176.629	-0.35362	37	0.627842	0.21639	-1.85295
2	0	0	1	245.184	-1.22045	-1.22059	-172.819	-0.411786	37	0.626211	0.210941	-1.8468
2	0	0	1	245.517	-1.21712	-1.21777	-168.96	-0.46867	37	0.624932	0.205755	-1.8427
2	0	0	1	245.851	-1.21378	-1.21411	-165.101	-0.524273	37	0.623802	0.200451	-1.83791
2	0	0	1	246.184	-1.21045	-1.21116	-161.298	-0.578596	37	0.622312	0.195358	-1.83348
2	0	0	1	246.517	-1.20712	-1.20781	-157.354	-0.631612	37	0.620587	0.190055	-1.8284
2	0	0	1	246.851	-1.20378	-1.20255	-153.566	-0.683342	37	0.61919	0.184671	-1.82174
2	0	0	1	247.184	-1.20045	-1.20094	-149.856	-0.733834	37	0.617823	0.179968	-1.81876
2	0	0	1	247.517	-1.19711	-1.19712	-146.193	-0.783102	37	0.616197	0.17501	-1.81332
2	0	0	1	247.851	-1.19378	-1.19468	-142.444	-0.831132	37	0.614979	0.170175	-1.80966
2	0	0	1	248.184	-1.19045	-1.19422	-138.793	-0.877927	37	0.613551	0.165749	-1.80777
2	0	0	1	248.518	-1.18711	-1.19047	-135.168	-0.923515	37	0.612054	0.160914	-1.80253
2	0	0	1	248.851	-1.18378	-1.18461	-131.429	-0.967857	37	0.610436	0.155693	-1.79505
2	0	0	1	249.184	-1.18045	-1.17945	-127.778	-1.01097	37	0.609053	0.150708	-1.7885
2	0	0	1	249.518	-1.17711	-1.179	-124.199	-1.05289	37	0.607469	0.14643	-1.78647
2	0	0	1	249.851	-1.17378	-1.17493	-120.685	-1.09364	37	0.606205	0.141796	-1.78114
2	0	0	1	250.184	-1.17044	-1.17009	-117.083	-1.13319	37	0.60456	0.136997	-1.77465
2	0	0	1	250.518	-1.16711	-1.16721	-113.671	-1.17157	37	0.603329	0.132678	-1.77054
2	0	0	1	250.851	-1.16378	-1.16494	-110.15	-1.20881	37	0.60157	0.128318	-1.76651
2	0	0	1	251.184	-1.16044	-1.16029	-106.637	-1.24485	37	0.600082	0.123729	-1.76037
2	0	0	1	251.518	-1.15711	-1.1571	-103.084	-1.27973	37	0.598407	0.119278	-1.75551
2	0	0	1	251.851	-1.15378	-1.15377	-99.6725	-1.31344	37	0.596825	0.114999	-1.75059
2	0	0	1	252.185	-1.15044	-1.15126	-96.2611	-1.34602	37	0.595349	0.110821	-1.74661
2	0	0	1	252.518	-1.14711	-1.14856	-92.9166	-1.37748	37	0.59358	0.10672	-1.74214
2	0	0	1	252.851	-1.14377	-1.14658	-89.6525	-1.40783	37	0.592275	0.102793	-1.73885
2	0	0	1	253.185	-1.14044	-1.13988	-86.3751	-1.4371	37	0.590587	0.0984568	-1.73046
2	0	0	1	253.518	-1.13711	-1.13858	-83.0785	-1.46526	37	0.588762	0.0945915	-1.72734
2	0	0	1	253.851	-1.13377	-1.13354	-79.8039	-1.49232	37	0.5874	0.0904612	-1.72094
2	0	0	1	254.185	-1.13044	-1.13149	-76.6781	-1.51834	37	0.585974	0.0867603	-1.71746
2	0	0	1	254.518	-1.12711	-1.12692	-73.4393	-1.54328	37	0.583927	0.0827602	-1.71085
2	0	0	1	254.852	-1.12377	-1.12642	-70.3693	-1.56718	37	0.582647	0.0792651	-1.70906
2	0	0	1	255.185	-1.12044	-1.12151	-67.2417	-1.59005	37	0.58095	0.0754121	-1.70246
2	0	0	1	255.518	-1.1171	-1.11756	-64.248	-1.61189	37	0.57885	0.0718008	-1.69641
2	0	0	1	255.852	-1.11377	-1.11471	-61.1825	-1.63272	37	0.57725	0.0682005	-1.69196
2	0	0	1	256.185	-1.11044	-1.11163	-58.2425	-1.65256	37	0.575473	0.0647438	-1.6871
2	0	0	1	256.518	-1.1071	-1.10802	-55.2415	-1.6714	37	0.573485	0.0612088	-1.68151
2	0	0	1	256.852	-1.10377	-1.1039	-52.4687	-1.68928	37	0.572163	0.0579202	-1.67606
2	0	0	1	257.185	-1.10044	-1.10058	-49.487	-1.7062	37	0.569876	0.0544646	-1.67046
2	0	0	1	257.519	-1.0971	-1.0968	-46.6599	-1.72216	37	0.568062	0.0511768	-1.66487
2	0	0	1	257.869	-1.0936	-1.09491	-43.8472	-1.7379	37	0.566573	0.0480088	-1.66148
2	0	0	1	258.219	-1.0901	-1.09106	-40.9682	-1.75269	38	0.564078	0.0446989	-1.65514
2	0	0	1	258.552	-1.08677	-1.08751	-38.3332	-1.76585	38	0.562028	0.0416878	-1.64954
2	0	0	1	258.885	-1.08343	-1.08352	-35.6673	-1.77811	38	0.559986	0.0386462	-1.6435
2	0	0	1	259.219	-1.0801	-1.08074	-33.051	-1.7895	38	0.557711	0.0357194	-1.63845
2	0	0	1	259.552	-1.07677	-1.07722	-30.5355	-1.80003	38	0.555706	0.0328934	-1.63292
2	0	0	1	259.885	-1.07343	-1.07375	-27.9851	-1.80971	38	0.553371	0.0300489	-1.62712
2	0	0	1	260.219	-1.0701	-1.06999	-25.4754	-1.81856	38	0.550953	0.0272585	-1.62094
2	0	0	1	260.552	-1.06677	-1.06691	-22.9828	-1.82657	38	0.548765	0.0245205	-1.61567
2	0	0	1	260.886	-1.06343	-1.06411	-20.5849	-1.83376	38	0.545892	0.0219045	-1.61
2	0	0	1	261.219	-1.0601	-1.05962	-18.1708	-1.84016	38	0.543339	0.0192541	-1.60296
2	0	0	1	261.552	-1.05676	-1.05701	-15.7966	-1.84575	38	0.54006	0.0166971	-1.59707
2	0	0	1	261.886	-1.05343	-1.05322	-13.4303	-1.85056	38	0.536817	0.0141451	-1.59004
2	0	0	1	262.219	-1.0501	-1.04993	-11.0652	-1.85458	38	0.532839	0.0116177	-1.58277
2	0	0	1	262.552	-1.04676	-1.04649	-8.69141	-1.8578	38	0.528371	0.00909548	-1.57486
2	0	0	1	262.886	-1.04343	-1.04427	-6.35114	-1.86024	38	0.522887	0.00663232	-1.56716
2	0	0	1	263.219	-1.0401	-1.0413	-3.99896	-1.86191	38	0.516044	0.00416412	-1.55735
2	0	0	1	263.553	-1.03676	-1.03662	-1.6051	-1.86279	39	0.506589	0.00166388	-1.54321
2	0	0	1	263.886	-1.03343	-1.03482	0.860471	-1.86284	39	0.492292	-0.000890436	-1.52712
2	1	0	1	264.219	-1.03009	-1.03004	3.48162	-1.86205	39	0.471156	-0.00358619	-1.50119
2	1	0	1	264.553	-1.02676	-1.02859	6.26469	-1.86036	39	0.443853	-0.0064438	-1.47244
2	1	0	1	264.886	-1.02343	-1.02342	9.13787	-1.85772	39	0.411644	-0.00935184	-1.43506
2	1	0	1	265.219	-1.02009	-1.02083	11.9977	-1.85412	38	0.378308	-0.0122476	-1.39914
2	1	0	1	265.553	-1.01676	-1.01887	14.9076	-1.84956	38	0.34747	-0.0151888	-1.36634
2	1	0	1	265.886	-1.01343	-1.01322	17.7401	-1.84405	38	0.326017	-0.0179746	-1.33923
2	1	0	1	266.22	-1.01009	-1.0108	19.9165	-1.8377	38	0.308031	-0.0201316	-1.31883
2	1	0	1	266.553	-1.00676	-1.00817	21.6631	-1.83071	38	0.289432	-0.0218401	-1.2976
2	1	0	1	266.886	-1.00342	-1.00374	23.1435	-1.82318	38	0.271576	-0.02323	-1.27531
2	1	0	1	267.22	-1.00009	-1.00026	24.0839	-1.81526	38	0.253184	-0.0240902	-1.25345
2	1	0	1	267.553	-0.996759	-0.996871	24.8763	-1.80705	38	0.212926	-0.0247984	-1.2098
2	1	0	1	267.886	-0.993425	-0.992876	25.165	-1.79865	38	-0.26505	-0.0249857	-0.727826
2	1	0	1	268.22	-0.990091	-0.989737	25.9164	-1.79009	38	-0.922383	-0.0256504	-0.0673536
2	1	0	1	268.553	-0.986757	-0.987455	26.8245	-1.78125	38	-1.02316	-0.026488	0.0357037
2	1	0	1	268.887	-0.983423	-0.983113	27.7382	-1.7721	38	-1.0551	-0.0272698	0.0719881
2	1	0	1	269.22	-0.980089	-0.981181	28.5489	-1.76267	38	-1.06635	-0.0280116	0.0851685
2	1	0	1	269.553	-0.976756	-0.976983	29.2637	-1.75298	38	-1.07252	-0.0285901	0.0955384
2	1	0	1	269.887	-0.973423	-0.973587	29.8894	-1.74307	38	-1.07532	-0.0290999	0.10173
2	1	0	1	270.22	-0.970089	-0.97082	30.2928	-1.73299	38	-1.0785	-0.0294089	0.107682
2	1	0	1	270.553	-0.966755	-0.967736	30.6228	-1.72279	38	-1.0822	-0.0296348	0.114467
2	1	0	1	270.887	-0.963421	-0.963887	30.8302	-1.7125	38	-1.08531	-0.0297169	0.121421
2	1	0	1	271.22	-0.960087	-0.960405	30.8868	-1.70216	38	-1.08751	-0.0296639	0.127103
2	1	0	1	271.554	-0.956753	-0.957357	30.9278	-1.69182	38	-1.08912	-0.029609	0.131764
2	1	0	1	271.887	-0.95342	-0.953672	30.9803	-1.68145	38	-1.09066	-0.029545	0.136983
2	1	0	1	272.137	-0.95092	-0.951849	31.1053	-1.67366	38	-1.09167	-0.0296076	0.139817
2	1	0	0	272.212	-0.949919	-0.949696	31.6206	-1.67131	38	-1.09332	-0.0300299	0.143629