File: TS-82-25-08-120-200_2024-08-22_C01.txt
mode	error	time/s	<Ewe/V>
3	1	0.5	-0.436846
3	0	5.5	-0.437537
3	0	10.5	-0.438574
3	0	15.5	-0.439394
3	0	20.5	-0.440508
3	0	25.5	-0.441417
3	0	30.5	-0.4424
3	0	35.5	-0.450126
3	0	40.5	-0.442316
3	0	45.5	-0.444539
3	0	50.5	-0.445216
3	0	55.5	-0.44563
3	0	60.5	-0.446296
3	0	65.5	-0.446876
3	0	70.5	-0.447433
3	0	75.5	-0.44805
3	0	80.5	-0.448561
3	0	85.5	-0.448975
3	0	90.5	-0.449337
3	0	95.5	-0.449595
3	0	100.5	-0.450157
3	0	105.5	-0.450381
3	0	110.5	-0.450558
3	0	115.5	-0.451255
3	0	120.5	-0.450951
3	0	125.5	-0.451636
3	0	130.5	-0.454825
3	0	135.5	-0.452415
3	0	140.5	-0.452724
3	0	145.5	-0.45299
3	0	150.5	-0.453231
3	0	155.5	-0.453422
3	0	160.5	-0.45337
3	0	165.5	-0.453587
3	0	170.5	-0.453836
3	0	175.5	-0.454031
3	0	180.5	-0.45455
3	0	185.5	-0.453011
3	0	190.5	-0.454518
3	0	195.5	-0.460871
3	0	200.5	-0.454846
3	0	205.5	-0.455119
3	0	210.5	-0.455171
3	0	215.5	-0.455238
3	0	220.5	-0.455505
3	0	225.5	-0.455485
3	0	230.5	-0.455812
3	0	235.5	-0.455983
3	0	240.5	-0.46267
3	0	245.5	-0.455862
3	0	250.5	-0.456317
3	0	255.5	-0.456534
3	0	260.5	-0.456747
3	0	265.5	-0.456848
3	0	270.5	-0.456888
3	0	275.5	-0.456864
3	0	280.5	-0.456915
3	0	285.5	-0.457067
3	0	290.5	-0.456961
3	0	295.5	-0.456852
3	0	300.5	-0.456737
3	0	305.5	-0.456504
3	0	310.5	-0.457253
3	0	315.5	-0.456914
3	0	320.5	-0.45674
3	0	325.5	-0.456649
3	0	330.5	-0.456552
3	0	335.5	-0.456705
3	0	340.5	-0.456814
3	0	345.5	-0.456683
3	0	350.5	-0.456704
3	0	355.5	-0.456789
3	0	360.5	-0.456782
3	0	365.5	-0.457053
3	0	370.5	-0.457097
3	0	375.5	-0.457057
3	0	380.5	-0.45721
3	0	385.5	-0.45716
3	0	390.5	-0.45729
3	0	395.5	-0.457557
3	0	400.5	-0.457551
3	0	405.5	-0.457562
3	0	410.5	-0.457577
3	0	415.5	-0.457529
3	0	420.5	-0.457698
3	0	425.5	-0.458431
3	0	430.5	-0.457966
3	0	435.5	-0.458066
3	0	440.5	-0.458127
3	0	445.5	-0.458035
3	0	450.5	-0.4581
3	0	455.5	-0.458219
3	0	460.5	-0.458214
3	0	465.5	-0.458352
3	0	470.5	-0.45835
3	0	475.5	-0.458351
3	0	480.5	-0.458487
3	0	485.5	-0.458358
3	0	490.5	-0.458475
3	0	495.5	-0.458747
3	0	500.5	-0.458911
3	0	505.5	-0.458907
3	0	510.5	-0.459079
3	0	515.5	-0.459074
3	0	520.5	-0.459257
3	0	525.5	-0.459453
3	0	530.5	-0.459443
3	0	535.5	-0.459635
3	0	540.5	-0.45979
3	0	545.5	-0.459818
3	0	550.5	-0.460025
3	0	555.5	-0.460088
3	0	560.5	-0.460276
3	0	565.5	-0.460407
3	0	570.5	-0.460315
3	0	575.5	-0.460448
3	0	580.5	-0.460806
3	0	585.5	-0.460855
3	0	590.5	-0.460984
3	0	595.5	-0.461072
3	0	600.5	-0.460982
3	0	605.5	-0.461145
3	0	610.5	-0.461466
3	0	615.5	-0.46142
3	0	620.5	-0.461673
3	0	625.5	-0.461741
3	0	630.5	-0.461689
3	0	635.5	-0.461912
3	0	640.5	-0.46206
3	0	645.5	-0.462153
3	0	650.5	-0.462418
3	0	655.5	-0.462544
3	0	660.5	-0.462596
3	0	665.5	-0.462777
3	0	670.5	-0.462806
3	0	675.5	-0.462852
3	0	680.5	-0.463087
3	0	685.5	-0.463082
3	0	690.5	-0.463486
3	0	695.5	-0.463738
3	0	700.5	-0.463776
3	0	705.5	-0.463997
3	0	710.5	-0.464166
3	0	715.5	-0.464181
3	0	720.5	-0.464317
3	0	725.5	-0.464481
3	0	730.5	-0.464437
3	0	735.5	-0.484257
3	0	740.5	-0.465414
3	0	745.5	-0.464839
3	0	750.5	-0.464819
3	0	755.5	-0.464932
3	0	760.5	-0.464914
3	0	765.5	-0.465022
3	0	770.5	-0.465159
3	0	775.5	-0.465134
3	0	780.5	-0.465025
3	0	785.5	-1.47751
3	0	790.5	-1.48372
3	0	795.5	-1.4858
3	0	800.5	-1.52199
3	0	805.5	-1.54237
3	0	810.5	-1.54802
3	0	815.5	-1.54213
3	0	820.5	-1.55231
3	0	825.5	-1.56156
3	0	830.5	-1.57102
3	0	835.5	-1.56582
3	0	840.5	-1.55868
3	0	845.5	-1.53953
3	0	850.5	-1.53764
3	0	855.5	-1.51213
3	0	860.5	-1.50023
3	0	865.5	-1.49645
3	0	870.5	-1.48957
3	0	875.5	-1.48904
3	0	880.5	-1.50042
3	0	885.5	-1.48943
3	0	890.5	-1.48445
3	0	895.5	-1.47286
3	0	900.5	-1.46909
3	0	905.5	-1.45885
3	0	910.5	-1.45014
3	0	915.5	-1.44433
3	0	920.5	-1.45145
3	0	925.5	-1.44791
3	0	930.5	-1.43801
3	0	935.5	-1.47008
3	0	940.5	-1.45924
3	0	945.5	-1.45762
3	0	950.5	-1.45236
3	0	955.5	-1.43768
3	0	960.5	-1.42851
3	0	965.5	-1.41776
3	0	970.5	-1.39652
3	0	975.5	-1.38581
3	0	980.5	-1.38341
3	0	985.5	-1.378
3	0	990.5	-1.39027
3	0	995.5	-1.39297
3	0	1000.5	-1.3982
3	0	1005.5	-1.40683
3	0	1010.5	-1.41414
3	0	1015.5	-1.42112
3	0	1020.5	-1.42477
3	0	1025.5	-1.43267
3	0	1030.5	-1.43388
3	0	1035.5	-1.43922
3	0	1040.5	-1.4501
3	0	1045.5	-1.4697
3	0	1050.5	-1.45855
3	0	1055.5	-1.44319
3	0	1060.5	-1.43791
3	0	1065.5	-1.43063
3	0	1070.5	-1.4281
3	0	1075.5	-1.42139
3	0	1080.5	-1.41285
3	0	1085.5	-1.40112
3	0	1090.5	-1.40534
3	0	1095.5	-1.412
3	0	1100.5	-1.41159
3	0	1105.5	-1.40914
3	0	1110.5	-1.4071
3	0	1115.5	-1.40298
3	0	1120.5	-1.40178
3	0	1125.5	-1.39859
3	0	1130.5	-1.40284
3	0	1135.5	-1.39673
3	0	1140.5	-1.39875
3	0	1145.5	-1.39825
3	0	1150.5	-1.39633
3	0	1155.5	-1.39021
3	0	1160.5	-1.38592
3	0	1165.5	-1.3895
3	0	1170.5	-1.40237
3	0	1175.5	-1.40329
3	0	1180.5	-1.41199
3	0	1185.5	-1.40845
3	0	1190.5	-1.41226
3	0	1195.5	-1.40615
3	0	1200.5	-1.40833
3	0	1205.5	-1.40468
3	0	1210.5	-1.41014
3	0	1215.5	-1.40652
3	0	1220.5	-1.40402
3	0	1225.5	-1.41121
3	0	1230.5	-1.41031
3	0	1235.5	-1.4046
3	0	1240.5	-1.39732
3	0	1245.5	-1.39107
3	0	1250.5	-1.38427
3	0	1255.5	-1.37507
3	0	1260.5	-1.36408
3	0	1265.5	-1.36962
3	0	1270.5	-1.37907
3	0	1275.5	-1.38065
3	0	1280.5	-1.38859
3	0	1285.5	-1.38902
3	0	1290.5	-1.39449
3	0	1295.5	-1.39614
3	0	1300.5	-1.40085
3	0	1305.5	-1.399
3	0	1310.5	-1.39702
3	0	1315.5	-1.40643
3	0	1320.5	-1.40341
3	0	1325.5	-1.4002
3	0	1330.5	-1.40318
3	0	1335.5	-1.40269
3	0	1340.5	-1.3992
3	0	1345.5	-1.38651
3	0	1350.5	-1.39152
3	0	1355.5	-1.37263
3	0	1360.5	-1.37822
3	0	1365.5	-1.37032
3	0	1370.5	-1.38015
3	0	1375.5	-1.37919
3	0	1380.5	-1.37464
3	0	1385.5	-1.37493
3	0	1390.5	-1.36996
3	0	1395.5	-1.35969
3	0	1400.5	-1.36321
3	0	1405.5	-1.37413
3	0	1410.5	-1.37396
3	0	1415.5	-1.37657
3	0	1420.5	-1.37628
3	0	1425.5	-1.371
3	0	1430.5	-1.37033
3	0	1435.5	-1.3657
3	0	1440.5	-1.37255
3	0	1445.5	-1.36417
3	0	1450.5	-1.36604
3	0	1455.5	-1.3835
3	0	1460.5	-1.37137
3	0	1465.5	-1.36988
3	0	1470.5	-1.36246
3	0	1475.5	-1.35508
3	0	1480.5	-1.34876
3	0	1485.5	-1.33717
3	0	1490.5	-1.34151
3	0	1495.5	-1.3578
3	0	1500.5	-1.36005
3	0	1505.5	-1.35403
3	0	1510.5	-1.35019
3	0	1515.5	-1.34826
3	0	1520.5	-1.35422
3	0	1525.5	-1.36054
3	0	1530.5	-1.35636
3	0	1535.5	-1.35168
3	0	1540.5	-1.34673
3	0	1545.5	-1.37329
3	0	1550.5	-1.37103
3	0	1555.5	-1.37186
3	0	1560.5	-1.36811
3	0	1565.5	-1.36793
3	0	1570.5	-1.37757
3	0	1575.5	-1.36667
3	0	1580.5	-1.36307
3	0	1585.5	-1.36625
3	0	1590.5	-1.36145
3	0	1595.5	-1.35296
3	0	1600.5	-1.3518
3	0	1605.5	-1.35875
3	0	1610.5	-1.35855
3	0	1615.5	-1.36481
3	0	1620.5	-1.36089
3	0	1625.5	-1.35072
3	0	1630.5	-1.34789
3	0	1635.5	-1.34808
3	0	1640.5	-1.34539
3	0	1645.5	-1.36458
3	0	1650.5	-1.36214
3	0	1655.5	-1.36884
3	0	1660.5	-1.36897
3	0	1665.5	-1.36537
3	0	1670.5	-1.36538
3	0	1675.5	-1.36002
3	0	1680.5	-1.36873
3	0	1685.5	-1.37698
3	0	1690.5	-1.37654
3	0	1695.5	-1.3768
3	0	1700.5	-1.37098
3	0	1705.5	-1.3663
3	0	1710.5	-1.36587
3	0	1715.5	-1.35321
3	0	1720.5	-1.36673
3	0	1725.5	-1.36358
3	0	1730.5	-1.3614
3	0	1735.5	-1.34652
3	0	1740.5	-1.34305
3	0	1745.5	-1.34184
3	0	1750.5	-1.35848
3	0	1755.5	-1.3598
3	0	1760.5	-1.35491
3	0	1765.5	-1.36023
3	0	1770.5	-1.36029
3	0	1775.5	-1.35672
3	0	1780.5	-1.35624
3	0	1785.5	-1.3604
3	0	1790.5	-1.36676
3	0	1795.5	-1.37114
3	0	1800.5	-1.37681
3	0	1805.5	-1.37537
3	0	1810.5	-1.37461
3	0	1815.5	-1.36691
3	0	1820.5	-1.37038
3	0	1825.5	-1.35847
3	0	1830.5	-1.36824
3	0	1835.5	-1.35894
3	0	1840.5	-1.35452
3	0	1845.5	-1.35247
3	0	1850.5	-1.35864
3	0	1855.5	-1.35451
3	0	1860.5	-1.3498
3	0	1865.5	-1.34412
3	0	1870.5	-1.35108
3	0	1875.5	-1.34789
3	0	1880.5	-1.34088
3	0	1885.5	-1.34202
3	0	1890.5	-1.33833
3	0	1895.5	-1.36041
3	0	1900.5	-1.35341
3	0	1905.5	-1.35188
3	0	1910.5	-1.34748
3	0	1915.5	-1.37359
3	0	1920.5	-1.3756
3	0	1925.5	-1.36805
3	0	1930.5	-1.36335
3	0	1935.5	-1.3613
3	0	1940.5	-1.36849
3	0	1945.5	-1.35456
3	0	1950.5	-1.35464
3	0	1955.5	-1.3529
3	0	1960.5	-1.33806
3	0	1965.5	-1.3356
3	0	1970.5	-1.33271
3	0	1975.5	-1.34961
3	0	1980.5	-1.34235
3	0	1985.5	-1.3471
3	0	1990.5	-1.33944
3	0	1995.5	-1.34022
3	0	2000.5	-1.338
3	0	2005.5	-1.33923
3	0	2010.5	-1.35601
3	0	2015.5	-1.35404
3	0	2020.5	-1.34564
3	0	2025.5	-1.34559
3	0	2030.5	-1.33981
3	0	2035.5	-1.36459
3	0	2040.5	-1.36175
3	0	2045.5	-1.35828
3	0	2050.5	-1.36
3	0	2055.5	-1.3627
3	0	2060.5	-1.36508
3	0	2065.5	-1.34999
3	0	2070.5	-1.3522
3	0	2075.5	-1.36377
3	0	2080.5	-1.36231
3	0	2085.5	-1.35413
3	0	2090.5	-1.35156
3	0	2095.5	-1.356
3	0	2100.5	-1.35324
3	0	2105.5	-1.34878
3	0	2110.5	-1.34688
3	0	2115.5	-1.34513
3	0	2120.5	-1.34555
3	0	2125.5	-1.34102
3	0	2130.5	-1.33225
3	0	2135.5	-1.34314
3	0	2140.5	-1.36214
3	0	2145.5	-1.35652
3	0	2150.5	-1.35663
3	0	2155.5	-1.3581
3	0	2160.5	-1.35908
3	0	2165.5	-1.35201
3	0	2170.5	-1.35713
3	0	2175.5	-1.36344
3	0	2180.5	-1.36114
3	0	2185.5	-1.36082
3	0	2190.5	-1.35783
3	0	2195.5	-1.35762
3	0	2200.5	-1.3602
3	0	2205.5	-1.34772
3	0	2210.5	-1.35614
3	0	2215.5	-1.34886
3	0	2220.5	-1.35666
3	0	2225.5	-1.34392
3	0	2230.5	-1.34661
3	0	2235.5	-1.34217
3	0	2240.5	-1.33641
3	0	2245.5	-1.33936
3	0	2250.5	-1.34794
3	0	2255.5	-1.34333
3	0	2260.5	-1.34744
3	0	2265.5	-1.34599
3	0	2270.5	-1.34346
3	0	2275.5	-1.35615
3	0	2280.5	-1.35806
3	0	2285.5	-1.35964
3	0	2290.5	-1.3661
3	0	2295.5	-1.36061
3	0	2300.5	-1.3607
3	0	2305.5	-1.3567
3	0	2310.5	-1.35675
3	0	2315.5	-1.36222
3	0	2320.5	-1.36567
3	0	2325.5	-1.35379
3	0	2330.5	-1.35282
3	0	2335.5	-1.35153
3	0	2340.5	-1.3523
3	0	2345.5	-1.34915
3	0	2350.5	-1.34604
3	0	2355.5	-1.34952
3	0	2360.5	-1.34963
3	0	2365.5	-1.35103
3	0	2370.5	-1.34617
3	0	2375.5	-1.35019
3	0	2380.5	-1.35273
3	0	2385.5	-1.35007
3	0	2390.5	-1.34704
3	0	2395.5	-1.34998
3	0	2400.5	-1.34691
3	0	2405.5	-1.34856
3	0	2410.5	-1.34778
3	0	2415.5	-1.36164
3	0	2420.5	-1.36584
3	0	2425.5	-1.36262
3	0	2430.5	-1.36081
3	0	2435.5	-1.35949
3	0	2440.5	-1.35108
3	0	2445.5	-1.35498
3	0	2450.5	-1.34941
3	0	2455.5	-1.36357
3	0	2460.5	-1.35456
3	0	2465.5	-1.34472
3	0	2470.5	-1.34396
3	0	2475.5	-1.34448
3	0	2480.5	-1.34642
3	0	2485.5	-1.34055
3	0	2490.5	-1.33645
3	0	2495.5	-1.32932
3	0	2500.5	-1.34478
3	0	2505.5	-1.33627
3	0	2510.5	-1.33118
3	0	2515.5	-1.33223
3	0	2520.5	-1.34534
3	0	2525.5	-1.35885
3	0	2530.5	-1.35726
3	0	2535.5	-1.35806
3	0	2540.5	-1.36282
3	0	2545.5	-1.35918
3	0	2550.5	-1.35283
3	0	2555.5	-1.35439
3	0	2560.5	-1.352
3	0	2565.5	-1.36254
3	0	2570.5	-1.35803
3	0	2575.5	-1.35251
3	0	2580.5	-1.34146
3	0	2585.5	-1.34931
3	0	2590.5	-1.35178
3	0	2595.5	-1.34415
3	0	2600.5	-1.34505
3	0	2605.5	-1.33587
3	0	2610.5	-1.3402
3	0	2615.5	-1.33747
3	0	2620.5	-1.35288
3	0	2625.5	-1.3526
3	0	2630.5	-1.34715
3	0	2635.5	-1.35749
3	0	2640.5	-1.34942
3	0	2645.5	-1.35258
3	0	2650.5	-1.36152
3	0	2655.5	-1.36442
3	0	2660.5	-1.36454
3	0	2665.5	-1.35869
3	0	2670.5	-1.36075
3	0	2675.5	-1.37196
3	0	2680.5	-1.35728
3	0	2685.5	-1.3531
3	0	2690.5	-1.3625
3	0	2695.5	-1.35772
3	0	2700.5	-1.34964
3	0	2705.5	-1.34793
3	0	2710.5	-1.3516
3	0	2715.5	-1.35612
3	0	2720.5	-1.35154
3	0	2725.5	-1.35566
3	0	2730.5	-1.35027
3	0	2735.5	-1.34747
3	0	2740.5	-1.3514
3	0	2745.5	-1.34665
3	0	2750.5	-1.34163
3	0	2755.5	-1.34984
3	0	2760.5	-1.36469
3	0	2765.5	-1.36961
3	0	2770.5	-1.36445
3	0	2775.5	-1.37123
3	0	2780.5	-1.36224
3	0	2785.5	-1.36541
3	0	2790.5	-1.35468
3	0	2795.5	-1.3589
3	0	2800.5	-1.36283
3	0	2805.5	-1.36141
3	0	2810.5	-1.35781
3	0	2815.5	-1.34643
3	0	2820.5	-1.35523
3	0	2825.5	-1.34952
3	0	2830.5	-1.35492
3	0	2835.5	-1.34088
3	0	2840.5	-1.33967
3	0	2845.5	-1.34446
3	0	2850.5	-1.34546
3	0	2855.5	-1.34318
3	0	2860.5	-1.34614
3	0	2865.5	-1.34029
3	0	2870.5	-1.3572
3	0	2875.5	-1.36326
3	0	2880.5	-1.36235
3	0	2885.5	-1.35814
3	0	2890.5	-1.35366
3	0	2895.5	-1.36327
3	0	2900.5	-1.36854
3	0	2905.5	-1.36284
3	0	2910.5	-1.36038
3	0	2915.5	-1.36263
3	0	2920.5	-1.36321
3	0	2925.5	-1.36292
3	0	2930.5	-1.3571
3	0	2935.5	-1.349
3	0	2940.5	-1.34755
3	0	2945.5	-1.35664
3	0	2950.5	-1.35477
3	0	2955.5	-1.34989
3	0	2960.5	-1.33777
3	0	2965.5	-1.34095
3	0	2970.5	-1.34921
3	0	2975.5	-1.35235
3	0	2980.5	-1.356
3	0	2985.5	-1.35633
3	0	2990.5	-1.3527
3	0	2995.5	-1.35206
3	0	3000.5	-1.36015
3	0	3005.5	-1.36614
3	0	3010.5	-1.36502
3	0	3015.5	-1.36578
3	0	3020.5	-1.36271
3	0	3025.5	-1.36383
3	0	3030.5	-1.36234
3	0	3035.5	-1.35834
3	0	3040.5	-1.36158
3	0	3045.5	-1.35545
3	0	3050.5	-1.35337
3	0	3055.5	-1.35743
3	0	3060.5	-1.35519
3	0	3065.5	-1.34741
3	0	3070.5	-1.34783
3	0	3075.5	-1.34591
3	0	3080.5	-1.34707
3	0	3085.5	-1.34676
3	0	3090.5	-1.34595
3	0	3095.5	-1.35376
3	0	3100.5	-1.35067
3	0	3105.5	-1.35802
3	0	3110.5	-1.35612
3	0	3115.5	-1.35099
3	0	3120.5	-1.35139
3	0	3125.5	-1.34902
3	0	3130.5	-1.34845
3	0	3135.5	-1.36545
3	0	3140.5	-1.36781
3	0	3145.5	-1.36192
3	0	3150.5	-1.36269
3	0	3155.5	-1.35707
3	0	3160.5	-1.35141
3	0	3165.5	-1.35588
3	0	3170.5	-1.36068
3	0	3175.5	-1.35717
3	0	3180.5	-1.35074
3	0	3185.5	-1.3533
3	0	3190.5	-1.35558
3	0	3195.5	-1.35167
3	0	3200.5	-1.34379
3	0	3205.5	-1.35118
3	0	3210.5	-1.34529
3	0	3215.5	-1.35233
3	0	3220.5	-1.35651
3	0	3225.5	-1.35128
3	0	3230.5	-1.3509
3	0	3235.5	-1.35415
3	0	3240.5	-1.35191
3	0	3245.5	-1.34609
3	0	3250.5	-1.36272
3	0	3255.5	-1.35871
3	0	3260.5	-1.36817
3	0	3265.5	-1.36439
3	0	3270.5	-1.35664
3	0	3275.5	-1.36019
3	0	3280.5	-1.35227
3	0	3285.5	-1.35677
3	0	3290.5	-1.36041
3	0	3295.5	-1.35807
3	0	3300.5	-1.34842
3	0	3305.5	-1.34563
3	0	3310.5	-1.34961
3	0	3315.5	-1.34868
3	0	3320.5	-1.35288
3	0	3325.5	-1.34812
3	0	3330.5	-1.34553
3	0	3335.5	-1.34633
3	0	3340.5	-1.3428
3	0	3345.5	-1.34559
3	0	3350.5	-1.35433
3	0	3355.5	-1.35474
3	0	3360.5	-1.35705
3	0	3365.5	-1.36115
3	0	3370.5	-1.35117
3	0	3375.5	-1.35931
3	0	3380.5	-1.35467
3	0	3385.5	-1.34838
3	0	3390.5	-1.35516
3	0	3395.5	-1.34708
3	0	3400.5	-1.3509
3	0	3405.5	-1.35259
3	0	3410.5	-1.34609
3	0	3415.5	-1.33879
3	0	3420.5	-1.34001
3	0	3425.5	-1.33136
3	0	3430.5	-1.32635
3	0	3435.5	-1.3287
3	0	3440.5	-1.322
3	0	3445.5	-1.3404
3	0	3450.5	-1.34249
3	0	3455.5	-1.33685
3	0	3460.5	-1.33395
3	0	3465.5	-1.33455
3	0	3470.5	-1.34964
3	0	3475.5	-1.33773
3	0	3480.5	-1.33489
3	0	3485.5	-1.33879
3	0	3490.5	-1.34955
3	0	3495.5	-1.3487
3	0	3500.5	-1.35103
3	0	3505.5	-1.34427
3	0	3510.5	-1.34052
3	0	3515.5	-1.3355
3	0	3520.5	-1.33871
3	0	3525.5	-1.33231
3	0	3530.5	-1.34494
3	0	3535.5	-1.33583
3	0	3540.5	-1.33733
3	0	3545.5	-1.32947
3	0	3550.5	-1.3221
3	0	3555.5	-1.34333
3	0	3560.5	-1.34252
3	0	3565.5	-1.34594
3	0	3570.5	-1.34346
3	0	3575.5	-1.34895
3	0	3580.5	-1.34208
3	0	3585.5	-1.34638
3	0	3590.5	-1.33618
3	0	3595.5	-1.34395
3	0	3600.5	-1.3516
3	0	3605.5	-1.35509
3	0	3610.5	-1.35137
3	0	3615.5	-1.3527
3	0	3620.5	-1.35165
3	0	3625.5	-1.34092
3	0	3630.5	-1.35385
3	0	3635.5	-1.34666
3	0	3640.5	-1.35023
3	0	3645.5	-1.3506
3	0	3650.5	-1.33934
3	0	3655.5	-1.34088
3	0	3660.5	-1.34055
3	0	3665.5	-1.33249
3	0	3670.5	-1.33815
3	0	3675.5	-1.33681
3	0	3680.5	-1.33341
3	0	3685.5	-1.33682
3	0	3690.5	-1.33781
3	0	3695.5	-1.34066
3	0	3700.5	-1.34171
3	0	3705.5	-1.33872
3	0	3710.5	-1.34134
3	0	3715.5	-1.3402
3	0	3720.5	-1.346
3	0	3725.5	-1.35618
3	0	3730.5	-1.35561
3	0	3735.5	-1.3564
3	0	3740.5	-1.34516
3	0	3745.5	-1.34383
3	0	3750.5	-1.35454
3	0	3755.5	-1.35067
3	0	3760.5	-1.35696
3	0	3765.5	-1.34018
3	0	3770.5	-1.33577
3	0	3775.5	-1.34016
3	0	3780.5	-1.3442
3	0	3785.5	-1.34998
3	0	3790.5	-1.33675
3	0	3795.5	-1.33797
3	0	3800.5	-1.34186
3	0	3805.5	-1.33989
3	0	3810.5	-1.34604
3	0	3815.5	-1.34387
3	0	3820.5	-1.35143
3	0	3825.5	-1.34772
3	0	3830.5	-1.34332
3	0	3835.5	-1.36765
3	0	3840.5	-1.35231
3	0	3845.5	-1.35108
3	0	3850.5	-1.35509
3	0	3855.5	-1.35471
3	0	3860.5	-1.35611
3	0	3865.5	-1.3577
3	0	3870.5	-1.34835
3	0	3875.5	-1.35422
3	0	3880.5	-1.35557
3	0	3885.5	-1.34813
3	0	3890.5	-1.3408
3	0	3895.5	-1.33631
3	0	3900.5	-1.34845
3	0	3905.5	-1.3422
3	0	3910.5	-1.33905
3	0	3915.5	-1.33319
3	0	3920.5	-1.33987
3	0	3925.5	-1.33901
3	0	3930.5	-1.34398
3	0	3935.5	-1.34265
3	0	3940.5	-1.34016
3	0	3945.5	-1.34221
3	0	3950.5	-1.34236
3	0	3955.5	-1.34723
3	0	3960.5	-1.34651
3	0	3965.5	-1.34333
3	0	3970.5	-1.3418
3	0	3975.5	-1.33905
3	0	3980.5	-1.33404
3	0	3985.5	-1.33982
3	0	3990.5	-1.35702
3	0	3995.5	-1.34901
3	0	4000.5	-1.34492
3	0	4005.5	-1.35061
3	0	4010.5	-1.33763
3	0	4015.5	-1.33683
3	0	4020.5	-1.33865
3	0	4025.5	-1.33993
3	0	4030.5	-1.33768
3	0	4035.5	-1.33113
3	0	4040.5	-1.32497
3	0	4045.5	-1.34147
3	0	4050.5	-1.34405
3	0	4055.5	-1.345
3	0	4060.5	-1.34207
3	0	4065.5	-1.35278
3	0	4070.5	-1.35392
3	0	4075.5	-1.34964
3	0	4080.5	-1.346
3	0	4085.5	-1.34637
3	0	4090.5	-1.35154
3	0	4095.5	-1.35025
3	0	4100.5	-1.34451
3	0	4105.5	-1.34978
3	0	4110.5	-1.34968
3	0	4115.5	-1.34801
3	0	4120.5	-1.33612
3	0	4125.5	-1.3435
3	0	4130.5	-1.34015
3	0	4135.5	-1.34391
3	0	4140.5	-1.33775
3	0	4145.5	-1.33473
3	0	4150.5	-1.32956
3	0	4155.5	-1.33272
3	0	4160.5	-1.33545
3	0	4165.5	-1.3393
3	0	4170.5	-1.33019
3	0	4175.5	-1.33707
3	0	4180.5	-1.33498
3	0	4185.5	-1.33681
3	0	4190.5	-1.34902
3	0	4195.5	-1.35023
3	0	4200.5	-1.35141
3	0	4205.5	-1.35191
3	0	4210.5	-1.34501
3	0	4215.5	-1.33626
3	0	4220.5	-1.33912
3	0	4225.5	-1.34071
3	0	4230.5	-1.34326
3	0	4235.5	-1.34325
3	0	4240.5	-1.3427
3	0	4245.5	-1.33835
3	0	4250.5	-1.33396
3	0	4255.5	-1.32335
3	0	4260.5	-1.30941
3	0	4265.5	-1.31753
3	0	4270.5	-1.33839
3	0	4275.5	-1.34093
3	0	4280.5	-1.34347
3	0	4285.5	-1.34202
3	0	4290.5	-1.33765
3	0	4295.5	-1.34529
3	0	4300.5	-1.33474
3	0	4305.5	-1.34451
3	0	4310.5	-1.35154
3	0	4315.5	-1.35326
3	0	4320.5	-1.35979
3	0	4325.5	-1.34977
3	0	4330.5	-1.35535
3	0	4335.5	-1.34767
3	0	4340.5	-1.34956
3	0	4345.5	-1.34796
3	0	4350.5	-1.3547
3	0	4355.5	-1.34447
3	0	4360.5	-1.34017
3	0	4365.5	-1.33872
3	0	4370.5	-1.34933
3	0	4375.5	-1.34573
3	0	4380.5	-1.34188
3	0	4385.5	-1.34069
3	0	4390.5	-1.33694
3	0	4395.5	-1.33195
3	0	4400.5	-1.34658
3	0	4405.5	-1.34511
3	0	4410.5	-1.34322
3	0	4415.5	-1.34388
3	0	4420.5	-1.35128
3	0	4425.5	-1.35055
3	0	4430.5	-1.3495
3	0	4435.5	-1.34838
3	0	4440.5	-1.34639
3	0	4445.5	-1.34975
3	0	4450.5	-1.35441
3	0	4455.5	-1.35855
3	0	4460.5	-1.35789
3	0	4465.5	-1.3536
3	0	4470.5	-1.34691
3	0	4475.5	-1.35144
3	0	4480.5	-1.35004
3	0	4485.5	-1.34291
3	0	4490.5	-1.33836
3	0	4495.5	-1.34549
3	0	4500.5	-1.33966
3	0	4505.5	-1.332
3	0	4510.5	-1.33617
3	0	4515.5	-1.33412
3	0	4520.5	-1.34699
3	0	4525.5	-1.34554
3	0	4530.5	-1.33774
3	0	4535.5	-1.33404
3	0	4540.5	-1.34363
3	0	4545.5	-1.34065
3	0	4550.5	-1.34967
3	0	4555.5	-1.34814
3	0	4560.5	-1.351
3	0	4565.5	-1.35291
3	0	4570.5	-1.34481
3	0	4575.5	-1.35593
3	0	4580.5	-1.3592
3	0	4585.5	-1.35731
3	0	4590.5	-1.35795
3	0	4595.5	-1.34787
3	0	4600.5	-1.33826
3	0	4605.5	-1.3419
3	0	4610.5	-1.33134
3	0	4615.5	-1.34197
3	0	4620.5	-1.34551
3	0	4625.5	-1.34013
3	0	4630.5	-1.34485
3	0	4635.5	-1.34403
3	0	4640.5	-1.34995
3	0	4645.5	-1.34164
3	0	4650.5	-1.34123
3	0	4655.5	-1.33654
3	0	4660.5	-1.34472
3	0	4665.5	-1.34678
3	0	4670.5	-1.34441
3	0	4675.5	-1.34772
3	0	4680.5	-1.35883
3	0	4685.5	-1.35007
3	0	4690.5	-1.3561
3	0	4695.5	-1.35756
3	0	4700.5	-1.3557
3	0	4705.5	-1.35538
3	0	4710.5	-1.34482
3	0	4715.5	-1.35182
3	0	4720.5	-1.35616
3	0	4725.5	-1.3579
3	0	4730.5	-1.34927
3	0	4735.5	-1.3371
3	0	4740.5	-1.34594
3	0	4745.5	-1.34277
3	0	4750.5	-1.34185
3	0	4755.5	-1.33835
3	0	4760.5	-1.34291
3	0	4765.5	-1.34815
3	0	4770.5	-1.34044
3	0	4775.5	-1.35617
3	0	4780.5	-1.35032
3	0	4785.5	-1.34712
3	0	4790.5	-1.34407
3	0	4795.5	-1.34171
3	0	4800.5	-1.34583
3	0	4805.5	-1.34661
3	0	4810.5	-1.34791
3	0	4815.5	-1.36017
3	0	4820.5	-1.35025
3	0	4825.5	-1.35059
3	0	4830.5	-1.34983
3	0	4835.5	-1.34682
3	0	4840.5	-1.35075
3	0	4845.5	-1.34332
3	0	4850.5	-1.33548
3	0	4855.5	-1.33673
3	0	4860.5	-1.34371
3	0	4865.5	-1.33834
3	0	4870.5	-1.33931
3	0	4875.5	-1.33197
3	0	4880.5	-1.34322
3	0	4885.5	-1.34667
3	0	4890.5	-1.34761
3	0	4895.5	-1.33798
3	0	4900.5	-1.33879
3	0	4905.5	-1.33085
3	0	4910.5	-1.34621
3	0	4915.5	-1.34167
3	0	4920.5	-1.34623
3	0	4925.5	-1.34897
3	0	4930.5	-1.34006
3	0	4935.5	-1.35086
3	0	4940.5	-1.34611
3	0	4945.5	-1.34411
3	0	4950.5	-1.34169
3	0	4955.5	-1.34071
3	0	4960.5	-1.33826
3	0	4965.5	-1.33505
3	0	4970.5	-1.33353
3	0	4975.5	-1.331
3	0	4980.5	-1.32762
3	0	4985.5	-1.33868
3	0	4990.5	-1.34043
3	0	4995.5	-1.34082
3	0	5000.5	-1.33618
3	0	5005.5	-1.33365
3	0	5010.5	-1.32997
3	0	5015.5	-1.33601
3	0	5020.5	-1.35678
3	0	5025.5	-1.34885
3	0	5030.5	-1.35284
3	0	5035.5	-1.353
3	0	5040.5	-1.35511
3	0	5045.5	-1.34912
3	0	5050.5	-1.35112
3	0	5055.5	-1.34382
3	0	5060.5	-1.35482
3	0	5065.5	-1.33924
3	0	5070.5	-1.33973
3	0	5075.5	-1.33349
3	0	5080.5	-1.32513
3	0	5085.5	-1.32123
3	0	5090.5	-1.33718
3	0	5095.5	-1.32396
3	0	5100.5	-1.32369
3	0	5105.5	-1.32657
3	0	5110.5	-1.32086
3	0	5115.5	-1.31987
3	0	5120.5	-1.31419
3	0	5125.5	-1.32308
3	0	5130.5	-1.33948
3	0	5135.5	-1.32816
3	0	5140.5	-1.33226
3	0	5145.5	-1.3281
3	0	5150.5	-1.33091
3	0	5155.5	-1.33824
3	0	5160.5	-1.33691
3	0	5165.5	-1.34327
3	0	5170.5	-1.33588
3	0	5175.5	-1.34074
3	0	5180.5	-1.3237
3	0	5185.5	-1.32536
3	0	5190.5	-1.33456
3	0	5195.5	-1.3378
3	0	5200.5	-1.33172
3	0	5205.5	-1.32663
3	0	5210.5	-1.32917
3	0	5215.5	-1.321
3	0	5220.5	-1.3197
3	0	5225.5	-1.31164
3	0	5230.5	-1.32825
3	0	5235.5	-1.32264
3	0	5240.5	-1.327
3	0	5245.5	-1.33104
3	0	5250.5	-1.33113
3	0	5255.5	-1.34114
3	0	5260.5	-1.34181
3	0	5265.5	-1.34083
3	0	5270.5	-1.3324
3	0	5275.5	-1.33749
3	0	5280.5	-1.33359
3	0	5285.5	-1.32967
3	0	5290.5	-1.34354
3	0	5295.5	-1.34643
3	0	5300.5	-1.34312
3	0	5305.5	-1.34428
3	0	5310.5	-1.33922
3	0	5315.5	-1.33197
3	0	5320.5	-1.34202
3	0	5325.5	-1.33089
3	0	5330.5	-1.32915
3	0	5335.5	-1.32328
3	0	5340.5	-1.34399
3	0	5345.5	-1.333
3	0	5350.5	-1.33035
3	0	5355.5	-1.33241
3	0	5360.5	-1.33315
3	0	5365.5	-1.32884
3	0	5370.5	-1.33437
3	0	5375.5	-1.33744
3	0	5380.5	-1.34624
3	0	5385.5	-1.33837
3	0	5390.5	-1.33908
3	0	5395.5	-1.34251
3	0	5400.5	-1.33805
3	0	5405.5	-1.33157
3	0	5410.5	-1.34796
3	0	5415.5	-1.33253
3	0	5420.5	-1.3384
3	0	5425.5	-1.33843
3	0	5430.5	-1.32691
3	0	5435.5	-1.32906
3	0	5440.5	-1.33185
3	0	5445.5	-1.33744
3	0	5450.5	-1.33125
3	0	5455.5	-1.32941
3	0	5460.5	-1.33933
3	0	5465.5	-1.3352
3	0	5470.5	-1.32369
3	0	5475.5	-1.31837
3	0	5480.5	-1.3222
3	0	5485.5	-1.32548
3	0	5490.5	-1.34039
3	0	5495.5	-1.33803
3	0	5500.5	-1.3431
3	0	5505.5	-1.34975
3	0	5510.5	-1.33012
3	0	5515.5	-1.33693
3	0	5520.5	-1.33422
3	0	5525.5	-1.33777
3	0	5530.5	-1.35154
3	0	5535.5	-1.34065
3	0	5540.5	-1.34142
3	0	5545.5	-1.3305
3	0	5550.5	-1.3315
3	0	5555.5	-1.33344
3	0	5560.5	-1.33237
3	0	5565.5	-1.33871
3	0	5570.5	-1.33289
3	0	5575.5	-1.33104
3	0	5580.5	-1.31993
3	0	5585.5	-1.32807
3	0	5590.5	-1.32058
3	0	5595.5	-1.32024
3	0	5600.5	-1.32906
3	0	5605.5	-1.32671
3	0	5610.5	-1.34302
3	0	5615.5	-1.33379
3	0	5620.5	-1.33777
3	0	5625.5	-1.33854
3	0	5630.5	-1.33817
3	0	5635.5	-1.34044
3	0	5640.5	-1.33834
3	0	5645.5	-1.34297
3	0	5650.5	-1.3342
3	0	5655.5	-1.34248
3	0	5660.5	-1.33574
3	0	5665.5	-1.3355
3	0	5670.5	-1.33467
3	0	5675.5	-1.34172
3	0	5680.5	-1.33767
3	0	5685.5	-1.33725
3	0	5690.5	-1.32133
3	0	5695.5	-1.33675
3	0	5700.5	-1.33874
3	0	5705.5	-1.33381
3	0	5710.5	-1.32997
3	0	5715.5	-1.33324
3	0	5720.5	-1.33087
3	0	5725.5	-1.32447
3	0	5730.5	-1.33374
3	0	5735.5	-1.33045
3	0	5740.5	-1.32662
3	0	5745.5	-1.34773
3	0	5750.5	-1.33323
3	0	5755.5	-1.33072
3	0	5760.5	-1.33359
3	0	5765.5	-1.33944
3	0	5770.5	-1.35532
3	0	5775.5	-1.3441
3	0	5780.5	-1.32391
3	0	5785.5	-1.32836
3	0	5790.5	-1.33911
3	0	5795.5	-1.33471
3	0	5800.5	-1.33
3	0	5805.5	-1.33482
3	0	5810.5	-1.342
3	0	5815.5	-1.32195
3	0	5820.5	-1.31818
3	0	5825.5	-1.32517
3	0	5830.5	-1.32871
3	0	5835.5	-1.32497
3	0	5840.5	-1.33157
3	0	5845.5	-1.33288
3	0	5850.5	-1.33613
3	0	5855.5	-1.3289
3	0	5860.5	-1.33344
3	0	5865.5	-1.32621
3	0	5870.5	-1.34676
3	0	5875.5	-1.33045
3	0	5880.5	-1.33156
3	0	5885.5	-1.33764
3	0	5890.5	-1.35162
3	0	5895.5	-1.3454
3	0	5900.5	-1.34775
3	0	5905.5	-1.33114
3	0	5910.5	-1.33762
3	0	5915.5	-1.32754
3	0	5920.5	-1.32183
3	0	5925.5	-1.33711
3	0	5930.5	-1.32144
3	0	5935.5	-1.3314
3	0	5940.5	-1.33149
3	0	5945.5	-1.32341
3	0	5950.5	-1.33283
3	0	5955.5	-1.33359
3	0	5960.5	-1.33803
3	0	5965.5	-1.3308
3	0	5970.5	-1.33247
3	0	5975.5	-1.32615
3	0	5980.5	-1.32802
3	0	5985.5	-1.33806
3	0	5990.5	-1.33427
3	0	5995.5	-1.33662
3	0	6000.5	-1.34006
3	0	6005.5	-1.34217
3	0	6010.5	-1.33495
3	0	6015.5	-1.33723
3	0	6020.5	-1.34768
3	0	6025.5	-1.34294
3	0	6030.5	-1.34093
3	0	6035.5	-1.33372
3	0	6040.5	-1.33826
3	0	6045.5	-1.33708
3	0	6050.5	-1.33737
3	0	6055.5	-1.34392
3	0	6060.5	-1.32531
3	0	6065.5	-1.32995
3	0	6070.5	-1.33088
3	0	6075.5	-1.33594
3	0	6080.5	-1.33889
3	0	6085.5	-1.33437
3	0	6090.5	-1.33346
3	0	6095.5	-1.33655
3	0	6100.5	-1.36187
3	0	6105.5	-1.35104
3	0	6110.5	-1.34718
3	0	6115.5	-1.34475
3	0	6120.5	-1.3413
3	0	6125.5	-1.33882
3	0	6130.5	-1.36165
3	0	6135.5	-1.3492
3	0	6140.5	-1.35603
3	0	6145.5	-1.35675
3	0	6150.5	-1.33549
3	0	6155.5	-1.33995
3	0	6160.5	-1.33595
3	0	6165.5	-1.34767
3	0	6170.5	-1.33828
3	0	6175.5	-1.33481
3	0	6180.5	-1.33887
3	0	6185.5	-1.33247
3	0	6190.5	-1.35401
3	0	6195.5	-1.33283
3	0	6200.5	-1.3373
3	0	6205.5	-1.33639
3	0	6210.5	-1.33468
3	0	6215.5	-1.33732
3	0	6220.5	-1.33547
3	0	6225.5	-1.34832
3	0	6230.5	-1.34275
3	0	6235.5	-1.34462
3	0	6240.5	-1.33134
3	0	6245.5	-1.35524
3	0	6250.5	-1.35063
3	0	6255.5	-1.34531
3	0	6260.5	-1.33516
3	0	6265.5	-1.3442
3	0	6270.5	-1.33132
3	0	6275.5	-1.34788
3	0	6280.5	-1.32872
3	0	6285.5	-1.33706
3	0	6290.5	-1.3362
3	0	6295.5	-1.33611
3	0	6300.5	-1.32411
3	0	6305.5	-1.33103
3	0	6310.5	-1.33171
3	0	6315.5	-1.33194
3	0	6320.5	-1.32943
3	0	6325.5	-1.32978
3	0	6330.5	-1.33509
3	0	6335.5	-1.32086
3	0	6340.5	-1.33964
3	0	6345.5	-1.34405
3	0	6350.5	-1.33355
3	0	6355.5	-1.34356
3	0	6360.5	-1.33579
3	0	6365.5	-1.33666
3	0	6370.5	-1.33815
3	0	6375.5	-1.33511
3	0	6380.5	-1.32643
3	0	6385.5	-1.33887
3	0	6390.5	-1.34153
3	0	6395.5	-1.33995
3	0	6400.5	-1.34919
3	0	6405.5	-1.331
3	0	6410.5	-1.3409
3	0	6415.5	-1.3243
3	0	6420.5	-1.33229
3	0	6425.5	-1.34993
3	0	6430.5	-1.33289
3	0	6435.5	-1.32778
3	0	6440.5	-1.3361
3	0	6445.5	-1.329
3	0	6450.5	-1.32905
3	0	6455.5	-1.33995
3	0	6460.5	-1.33033
3	0	6465.5	-1.33893
3	0	6470.5	-1.34443
3	0	6475.5	-1.33469
3	0	6480.5	-1.3289
3	0	6485.5	-1.3342
3	0	6490.5	-1.36364
3	0	6495.5	-1.35741
3	0	6500.5	-1.34616
3	0	6505.5	-1.34564
3	0	6510.5	-1.32921
3	0	6515.5	-1.3219
3	0	6520.5	-1.3244
3	0	6525.5	-1.31303
3	0	6530.5	-1.34182
3	0	6535.5	-1.33393
3	0	6540.5	-1.32983
3	0	6545.5	-1.3246
3	0	6550.5	-1.3205
3	0	6555.5	-1.32254
3	0	6560.5	-1.32162
3	0	6565.5	-1.32441
3	0	6570.5	-1.32506
3	0	6575.5	-1.32805
3	0	6580.5	-1.32583
3	0	6585.5	-1.33785
3	0	6590.5	-1.3484
3	0	6595.5	-1.35245
3	0	6600.5	-1.34308
3	0	6605.5	-1.34041
3	0	6610.5	-1.34586
3	0	6615.5	-1.32953
3	0	6620.5	-1.34614
3	0	6625.5	-1.33903
3	0	6630.5	-1.3333
3	0	6635.5	-1.32911
3	0	6640.5	-1.33291
3	0	6645.5	-1.34006
3	0	6650.5	-1.33522
3	0	6655.5	-1.33127
3	0	6660.5	-1.34264
3	0	6665.5	-1.33043
3	0	6670.5	-1.3272
3	0	6675.5	-1.32263
3	0	6680.5	-1.33323
3	0	6685.5	-1.33952
3	0	6690.5	-1.32852
3	0	6695.5	-1.32933
3	0	6700.5	-1.3332
3	0	6705.5	-1.33838
3	0	6710.5	-1.33518
3	0	6715.5	-1.33799
3	0	6720.5	-1.34929
3	0	6725.5	-1.34672
3	0	6730.5	-1.34566
3	0	6735.5	-1.34237
3	0	6740.5	-1.33939
3	0	6745.5	-1.33488
3	0	6750.5	-1.32165
3	0	6755.5	-1.31967
3	0	6760.5	-1.31113
3	0	6765.5	-1.32708
3	0	6770.5	-1.32568
3	0	6775.5	-1.32373
3	0	6780.5	-1.32808
3	0	6785.5	-1.31843
3	0	6790.5	-1.32309
3	0	6795.5	-1.32979
3	0	6800.5	-1.33819
3	0	6805.5	-1.32599
3	0	6810.5	-1.34655
3	0	6815.5	-1.33706
3	0	6820.5	-1.35941
3	0	6825.5	-1.34225
3	0	6830.5	-1.33419
3	0	6835.5	-1.33899
3	0	6840.5	-1.33646
3	0	6845.5	-1.3411
3	0	6850.5	-1.33432
3	0	6855.5	-1.34406
3	0	6860.5	-1.33179
3	0	6865.5	-1.32438
3	0	6870.5	-1.32575
3	0	6875.5	-1.33262
3	0	6880.5	-1.32576
3	0	6885.5	-1.33216
3	0	6890.5	-1.33502
3	0	6895.5	-1.33709
3	0	6900.5	-1.31715
3	0	6905.5	-1.31948
3	0	6910.5	-1.31991
3	0	6915.5	-1.33731
3	0	6920.5	-1.33574
3	0	6925.5	-1.34597
3	0	6930.5	-1.35431
3	0	6935.5	-1.34343
3	0	6940.5	-1.36242
3	0	6945.5	-1.34786
3	0	6950.5	-1.35145
3	0	6955.5	-1.34134
3	0	6960.5	-1.34189
3	0	6965.5	-1.34531
3	0	6970.5	-1.34454
3	0	6975.5	-1.33366
3	0	6980.5	-1.33805
3	0	6985.5	-1.34202
3	0	6990.5	-1.33356
3	0	6995.5	-1.34152
3	0	7000.5	-1.33794
3	0	7005.5	-1.3271
3	0	7010.5	-1.33802
3	0	7015.5	-1.33406
3	0	7020.5	-1.34485
3	0	7025.5	-1.33221
3	0	7030.5	-1.33629
3	0	7035.5	-1.3294
3	0	7040.5	-1.3414
3	0	7045.5	-1.34101
3	0	7050.5	-1.33268
3	0	7055.5	-1.33426
3	0	7060.5	-1.3444
3	0	7065.5	-1.34859
3	0	7070.5	-1.342
3	0	7075.5	-1.34243
3	0	7080.5	-1.33698
3	0	7085.5	-1.33919
3	0	7090.5	-1.34244
3	0	7095.5	-1.34623
3	0	7100.5	-1.34361
3	0	7105.5	-1.34381
3	0	7110.5	-1.3508
3	0	7115.5	-1.32975
3	0	7120.5	-1.33541
3	0	7125.5	-1.32835
3	0	7130.5	-1.33029
3	0	7135.5	-1.34265
3	0	7140.5	-1.34126
3	0	7145.5	-1.34673
3	0	7150.5	-1.32538
3	0	7155.5	-1.33756
3	0	7160.5	-1.34139
3	0	7165.5	-1.3443
3	0	7170.5	-1.33126
3	0	7175.5	-1.33006
3	0	7180.5	-1.35122
3	0	7185.5	-1.33502
3	0	7190.5	-1.3402
3	0	7195.5	-1.33909
3	0	7200.5	-1.34277
3	0	7205.5	-1.34832
3	0	7210.5	-1.33487
3	0	7215.5	-1.33698
3	0	7220.5	-1.35954
3	0	7225.5	-1.34691
3	0	7230	-1.34321