File: TS-82-25-02-360-100_2024-07-30_clean_NaOH_04_LSV_C01.txt
mode	ox/red	error	control changes	time/s	control/V	Ewe/V	<I>/mA	(Q-Qo)/C	I Range	<Ece>/V	P/W	Ewe-Ece/V
2	0	0	0	123.467	-1.22462	-1.22513	-201.262	-0.00716344	37	0.646035	0.246572	-1.87117
2	0	0	1	123.651	-1.22278	-1.22288	-198.314	-0.0435652	37	0.645053	0.242514	-1.86793
2	0	0	1	123.984	-1.21945	-1.21994	-193.987	-0.108867	37	0.643457	0.236652	-1.86339
2	0	0	1	124.317	-1.21612	-1.21766	-189.825	-0.172758	37	0.64199	0.231142	-1.85965
2	0	0	1	124.651	-1.21278	-1.21275	-185.678	-0.235246	37	0.640245	0.225181	-1.85299
2	0	0	1	124.984	-1.20945	-1.21065	-181.514	-0.296346	37	0.639032	0.219749	-1.84968
2	0	0	1	125.317	-1.20612	-1.20789	-177.464	-0.356099	37	0.637263	0.214357	-1.84515
2	0	0	1	125.651	-1.20278	-1.20444	-173.428	-0.414501	37	0.636074	0.208884	-1.84051
2	0	0	1	125.984	-1.19945	-1.20058	-169.424	-0.471566	37	0.634403	0.203406	-1.83498
2	0	0	1	126.318	-1.19611	-1.19733	-165.368	-0.527282	37	0.632831	0.198	-1.83016
2	0	0	1	126.651	-1.19278	-1.1929	-161.287	-0.581641	37	0.631209	0.192399	-1.8241
2	0	0	1	126.984	-1.18945	-1.1902	-157.337	-0.634646	37	0.629698	0.187262	-1.8199
2	0	0	1	127.318	-1.18611	-1.18778	-153.492	-0.686352	37	0.628215	0.182314	-1.816
2	0	0	1	127.651	-1.18278	-1.18515	-149.564	-0.736781	37	0.626613	0.177257	-1.81177
2	0	0	1	127.984	-1.17945	-1.1818	-145.704	-0.785912	37	0.625121	0.172194	-1.80692
2	0	0	1	128.318	-1.17611	-1.17804	-141.887	-0.83376	37	0.623449	0.167148	-1.80149
2	0	0	1	128.651	-1.17278	-1.17457	-138.223	-0.880363	37	0.621953	0.162353	-1.79653
2	0	0	1	128.985	-1.16944	-1.17034	-134.389	-0.925715	37	0.620457	0.15728	-1.79079
2	0	0	1	129.318	-1.16611	-1.16687	-130.56	-0.969775	37	0.618613	0.152346	-1.78548
2	0	0	1	129.651	-1.16278	-1.164	-126.843	-1.01258	37	0.617359	0.147646	-1.78136
2	0	0	1	129.985	-1.15944	-1.16031	-123.154	-1.05416	37	0.615705	0.142897	-1.77601
2	0	0	1	130.318	-1.15611	-1.15727	-119.532	-1.09453	37	0.613766	0.13833	-1.77103
2	0	0	1	130.651	-1.15278	-1.1529	-115.822	-1.13367	37	0.612413	0.133531	-1.76531
2	0	0	1	130.985	-1.14944	-1.14999	-112.152	-1.17158	37	0.610692	0.128974	-1.76069
2	0	0	1	131.318	-1.14611	-1.14714	-108.646	-1.20829	37	0.609151	0.124632	-1.75629
2	0	0	1	131.651	-1.14278	-1.14311	-105.11	-1.24382	37	0.607112	0.120153	-1.75023
2	0	0	1	131.985	-1.13944	-1.14076	-101.565	-1.27819	37	0.605791	0.115861	-1.74656
2	0	0	1	132.318	-1.13611	-1.13519	-98.0259	-1.31136	37	0.604046	0.111278	-1.73923
2	0	0	1	132.652	-1.13277	-1.13318	-94.5599	-1.34337	37	0.602172	0.107153	-1.73535
2	0	0	1	132.985	-1.12944	-1.13078	-91.1259	-1.37423	37	0.60063	0.103044	-1.73141
2	0	0	1	133.318	-1.12611	-1.12622	-87.695	-1.40395	37	0.599043	0.0987636	-1.72526
2	0	0	1	133.652	-1.12277	-1.12273	-84.3593	-1.43254	37	0.596963	0.0947128	-1.71969
2	0	0	1	133.985	-1.11944	-1.12004	-81.011	-1.46001	37	0.595318	0.0907357	-1.71536
2	0	0	1	134.318	-1.11611	-1.11557	-77.8102	-1.48638	37	0.593853	0.0868029	-1.70942
2	0	0	1	134.652	-1.11277	-1.11382	-74.5268	-1.51169	37	0.592118	0.0830092	-1.70593
2	0	0	1	134.985	-1.10944	-1.11069	-71.2958	-1.5359	37	0.590171	0.0791878	-1.70087
2	0	0	1	135.319	-1.1061	-1.10645	-68.0894	-1.55905	37	0.588488	0.0753376	-1.69494
2	0	0	1	135.652	-1.10277	-1.1015	-64.956	-1.58113	37	0.586424	0.0715493	-1.68793
2	0	0	1	135.985	-1.09944	-1.09971	-61.8921	-1.60219	37	0.58482	0.0680633	-1.68453
2	0	0	1	136.319	-1.0961	-1.09629	-58.8029	-1.62221	37	0.583015	0.0644652	-1.67931
2	0	0	1	136.652	-1.09277	-1.09344	-55.8326	-1.64123	37	0.580799	0.0610497	-1.67424
2	0	0	1	136.985	-1.08944	-1.09016	-52.8729	-1.65926	37	0.579156	0.0576402	-1.66932
2	0	0	1	137.319	-1.0861	-1.08525	-49.9273	-1.67631	37	0.576912	0.0541838	-1.66217
2	0	0	1	137.652	-1.08277	-1.08339	-46.9944	-1.69238	37	0.575153	0.0509132	-1.65854
2	0	0	1	138.002	-1.07927	-1.07933	-44.0426	-1.70819	37	0.573167	0.0475364	-1.65249
2	0	0	1	138.352	-1.07577	-1.07761	-41.0317	-1.72301	38	0.570639	0.0442161	-1.64825
2	0	0	1	138.686	-1.07243	-1.0729	-38.1841	-1.73612	38	0.568659	0.0409679	-1.64156
2	0	0	1	139.019	-1.0691	-1.0682	-35.377	-1.7483	38	0.566335	0.0377897	-1.63453
2	0	0	1	139.352	-1.06577	-1.06662	-32.55	-1.75953	38	0.563794	0.0347183	-1.63041
2	0	0	1	139.686	-1.06243	-1.06214	-29.7754	-1.76983	38	0.561606	0.0316256	-1.62374
2	0	0	1	140.019	-1.0591	-1.06126	-27.0219	-1.77921	38	0.559063	0.0286771	-1.62032
2	0	0	1	140.352	-1.05577	-1.05894	-24.2746	-1.78767	38	0.556156	0.0257054	-1.6151
2	0	0	1	140.686	-1.05243	-1.05214	-21.5111	-1.79521	38	0.55308	0.0226327	-1.60522
2	0	0	1	141.019	-1.0491	-1.05033	-18.7438	-1.80183	38	0.549816	0.0196872	-1.60015
2	0	0	1	141.353	-1.04576	-1.04631	-15.9328	-1.80753	38	0.546225	0.0166707	-1.59254
2	0	0	1	141.686	-1.04243	-1.04231	-13.0702	-1.81227	38	0.541877	0.0136232	-1.58418
2	0	0	1	142.019	-1.0391	-1.03862	-10.1106	-1.81604	38	0.536963	0.0105011	-1.57559
2	0	0	1	142.353	-1.03576	-1.03608	-7.07462	-1.81882	38	0.530854	0.00732986	-1.56693
2	0	0	1	142.703	-1.03226	-1.03281	-3.80251	-1.8206	38	0.521528	0.00392727	-1.55434
2	0	0	1	143.053	-1.02876	-1.02949	-0.378672	-1.82126	39	0.507764	0.000389838	-1.53725
2	1	0	1	143.386	-1.02543	-1.02526	2.77604	-1.82076	39	0.48758	-0.00284615	-1.51284
2	1	0	1	143.72	-1.02209	-1.02217	5.81499	-1.81924	39	0.45979	-0.0059439	-1.48196
2	1	0	1	144.053	-1.01876	-1.02021	8.79984	-1.81671	39	0.428212	-0.00897768	-1.44842
2	1	0	1	144.42	-1.01509	-1.01689	11.9052	-1.81281	38	0.39254	-0.0121063	-1.40943
2	1	0	1	144.753	-1.01176	-1.01195	14.4233	-1.80833	38	0.361968	-0.0145956	-1.37392
2	1	0	1	145.086	-1.00843	-1.00879	16.7324	-1.80305	38	0.338551	-0.0168795	-1.34734
2	1	0	1	145.42	-1.00509	-1.00552	18.5144	-1.79709	38	0.320785	-0.0186167	-1.32631
2	1	0	1	145.753	-1.00176	-1.00246	20.1419	-1.79058	38	0.297068	-0.0201914	-1.29953
2	1	0	1	146.086	-0.998425	-0.999034	22.2232	-1.78344	38	0.270539	-0.0222017	-1.26957
2	1	0	1	146.42	-0.995092	-0.995581	24.235	-1.77561	38	0.243637	-0.0241279	-1.23922
2	1	0	1	146.753	-0.991758	-0.991146	26.1279	-1.76714	38	0.180528	-0.0258966	-1.17167
2	1	0	1	147.087	-0.988424	-0.989098	26.7269	-1.75825	38	-0.402727	-0.0264355	-0.58637
2	1	0	1	147.42	-0.98509	-0.985782	28.4762	-1.74898	38	-1.00204	-0.0280713	0.0162565
2	1	0	1	147.753	-0.981756	-0.982667	30.6646	-1.73904	38	-1.11818	-0.0301331	0.135511
2	1	0	1	148.087	-0.978422	-0.980745	32.7715	-1.72839	38	-1.16125	-0.0321405	0.180507
2	1	0	1	148.42	-0.975089	-0.976317	34.8127	-1.71704	38	-1.15532	-0.0339882	0.179007
2	1	0	1	148.753	-0.971756	-0.971976	36.6218	-1.70506	38	-1.14356	-0.0355955	0.17158
2	1	0	1	149.087	-0.968422	-0.968097	38.0274	-1.69254	38	-1.13735	-0.0368142	0.169254
2	1	0	1	149.42	-0.965088	-0.965092	39.2065	-1.67959	38	-1.13418	-0.0378378	0.169091
2	1	0	1	149.754	-0.961754	-0.962411	40.2715	-1.66627	38	-1.13355	-0.0387577	0.171135
2	1	0	1	150.087	-0.95842	-0.958865	41.2428	-1.65261	38	-1.13398	-0.0395463	0.175111
2	1	0	1	150.42	-0.955086	-0.955307	42.227	-1.63862	38	-1.1351	-0.0403398	0.179795
2	1	0	1	150.754	-0.951753	-0.95181	43.2764	-1.6243	38	-1.13698	-0.0411909	0.185168
2	1	0	0	150.912	-0.949919	-0.94784	44.1149	-1.6174	38	-1.13837	-0.0418138	0.190535
2	0	0	0	240.874	-1.22062	-1.22108	-200.875	-0.00715209	37	0.639589	0.245285	-1.86067
2	0	0	1	241.057	-1.21878	-1.21935	-197.952	-0.0434901	37	0.638074	0.241372	-1.85742
2	0	0	1	241.391	-1.21545	-1.2164	-193.389	-0.108639	37	0.636355	0.235239	-1.85276
2	0	0	1	241.724	-1.21212	-1.2128	-189.009	-0.1723	37	0.634817	0.229231	-1.84762
2	0	0	1	242.057	-1.20878	-1.20895	-184.671	-0.234482	37	0.633092	0.223258	-1.84204
2	0	0	1	242.391	-1.20545	-1.20581	-180.451	-0.295246	37	0.631583	0.21759	-1.83739
2	0	0	1	242.724	-1.20212	-1.2024	-176.346	-0.354638	37	0.630143	0.212039	-1.83254
2	0	0	1	243.057	-1.19878	-1.19938	-172.156	-0.412647	37	0.628725	0.206481	-1.8281
2	0	0	1	243.391	-1.19545	-1.19615	-167.939	-0.469257	37	0.627104	0.200879	-1.82325
2	0	0	1	243.724	-1.19211	-1.19307	-163.831	-0.524478	37	0.625712	0.195462	-1.81878
2	0	0	1	244.058	-1.18878	-1.18874	-159.839	-0.578355	37	0.624202	0.190006	-1.81294
2	0	0	1	244.391	-1.18545	-1.18569	-155.744	-0.630862	37	0.622643	0.184664	-1.80833
2	0	0	1	244.724	-1.18211	-1.18233	-151.679	-0.682013	37	0.621135	0.179334	-1.80346
2	0	0	1	245.058	-1.17878	-1.1788	-147.669	-0.731833	37	0.619614	0.174073	-1.79842
2	0	0	1	245.391	-1.17545	-1.17585	-143.635	-0.780311	37	0.618001	0.168893	-1.79385
2	0	0	1	245.724	-1.17211	-1.1731	-139.589	-0.827442	37	0.616399	0.163751	-1.78949
2	0	0	1	246.058	-1.16878	-1.16885	-135.715	-0.873252	37	0.614498	0.15863	-1.78334
2	0	0	1	246.391	-1.16544	-1.16591	-131.742	-0.917755	37	0.613261	0.153599	-1.77917
2	0	0	1	246.724	-1.16211	-1.16268	-127.845	-0.960934	37	0.611404	0.148642	-1.77408
2	0	0	1	247.058	-1.15878	-1.15926	-123.89	-1.0028	37	0.609945	0.143621	-1.7692
2	0	0	1	247.391	-1.15544	-1.15428	-120.089	-1.04339	37	0.608515	0.138616	-1.76279
2	0	0	1	247.725	-1.15211	-1.15303	-116.165	-1.08269	37	0.606295	0.133941	-1.75932
2	0	0	1	248.058	-1.14878	-1.14794	-112.307	-1.1207	37	0.605072	0.128921	-1.75301
2	0	0	1	248.391	-1.14544	-1.14612	-108.541	-1.15744	37	0.603304	0.124401	-1.74943
2	0	0	1	248.725	-1.14211	-1.14218	-104.837	-1.19293	37	0.601438	0.119743	-1.74362
2	0	0	1	249.058	-1.13877	-1.14003	-101.177	-1.22718	37	0.600366	0.115345	-1.7404
2	0	0	1	249.391	-1.13544	-1.13573	-97.4705	-1.26022	37	0.598123	0.1107	-1.73385
2	0	0	1	249.725	-1.13211	-1.13319	-94.0565	-1.29206	37	0.59656	0.106584	-1.72975
2	0	0	1	250.058	-1.12877	-1.12927	-90.4079	-1.32273	37	0.594748	0.102095	-1.72402
2	0	0	1	250.392	-1.12544	-1.12668	-86.8634	-1.3522	37	0.593041	0.0978669	-1.71972
2	0	0	1	250.725	-1.12211	-1.12188	-83.4743	-1.38052	37	0.59129	0.0936477	-1.71317
2	0	0	1	251.058	-1.11877	-1.11901	-79.9417	-1.40768	37	0.589432	0.0894553	-1.70844
2	0	0	1	251.392	-1.11544	-1.11508	-76.4452	-1.43368	37	0.588174	0.0852423	-1.70325
2	0	0	1	251.725	-1.1121	-1.11116	-73.0097	-1.4585	37	0.586064	0.0811257	-1.69723
2	0	0	1	252.058	-1.10877	-1.11014	-69.6612	-1.4822	37	0.583932	0.0773337	-1.69407
2	0	0	1	252.392	-1.10544	-1.10608	-65.7882	-1.50471	37	0.581649	0.0727668	-1.68773
2	0	0	1	252.725	-1.1021	-1.10222	-62.5405	-1.52603	37	0.579527	0.0689336	-1.68175
2	0	0	1	253.059	-1.09877	-1.10015	-59.3596	-1.54628	37	0.578018	0.0653045	-1.67817
2	0	0	1	253.392	-1.09544	-1.09519	-56.211	-1.56547	37	0.575754	0.061562	-1.67095
2	0	0	1	253.725	-1.0921	-1.09253	-53.0913	-1.5836	37	0.573497	0.0580037	-1.66602
2	0	0	1	254.059	-1.08877	-1.08901	-50.0357	-1.60072	37	0.571904	0.0544893	-1.66091
2	0	0	1	254.392	-1.08544	-1.08544	-46.9998	-1.61682	37	0.569887	0.0510155	-1.65533
2	0	0	1	254.742	-1.08193	-1.08326	-43.9713	-1.63264	37	0.567649	0.0476322	-1.65091
2	0	0	1	255.092	-1.07843	-1.08015	-40.9083	-1.64744	38	0.565519	0.0441871	-1.64567
2	0	0	1	255.425	-1.0751	-1.07589	-37.973	-1.66052	38	0.563164	0.0408548	-1.63906
2	0	0	1	255.759	-1.07177	-1.07243	-35.0663	-1.67262	38	0.560902	0.0376062	-1.63334
2	0	0	1	256.092	-1.06843	-1.06973	-32.1754	-1.68375	38	0.558636	0.034419	-1.62836
2	0	0	1	256.426	-1.0651	-1.06501	-29.3037	-1.69393	38	0.555885	0.0312086	-1.62089
2	0	0	1	256.759	-1.06177	-1.06152	-26.5071	-1.70316	38	0.553294	0.0281377	-1.61481
2	0	0	1	257.092	-1.05843	-1.05914	-23.7398	-1.71146	38	0.550352	0.0251439	-1.6095
2	0	0	1	257.426	-1.0551	-1.05759	-20.9856	-1.71884	38	0.547566	0.0221942	-1.60516
2	0	0	1	257.759	-1.05176	-1.0531	-18.1968	-1.7253	38	0.544306	0.019163	-1.5974
2	0	0	1	258.092	-1.04843	-1.04762	-15.3804	-1.73082	38	0.540938	0.0161127	-1.58855
2	0	0	1	258.426	-1.0451	-1.04554	-12.5703	-1.7354	38	0.53652	0.0131427	-1.58206
2	0	0	1	258.759	-1.04176	-1.04162	-9.70266	-1.73904	38	0.531491	0.0101065	-1.57311
2	0	0	1	259.093	-1.03843	-1.03935	-6.78145	-1.74171	38	0.52554	0.00704827	-1.56489
2	0	0	1	259.443	-1.03493	-1.03557	-3.63701	-1.74343	38	0.516912	0.0037664	-1.55249
2	0	0	1	259.793	-1.03143	-1.03102	-0.334015	-1.74407	39	0.50415	0.000344377	-1.53517
2	1	0	1	260.126	-1.0281	-1.03094	2.86509	-1.74357	39	0.484883	-0.00295374	-1.51582
2	1	0	1	260.459	-1.02476	-1.02501	5.97351	-1.74202	39	0.458646	-0.00612292	-1.48366
2	1	0	1	260.793	-1.02143	-1.02152	8.9737	-1.73944	39	0.427915	-0.00916683	-1.44944
2	1	0	1	261.126	-1.01809	-1.01963	11.8817	-1.73588	38	0.395879	-0.0121149	-1.41551
2	1	0	1	261.46	-1.01476	-1.0153	14.807	-1.73135	38	0.363673	-0.0150336	-1.37897
2	1	0	1	261.793	-1.01143	-1.01133	17.4628	-1.72589	38	0.337322	-0.0176606	-1.34865
2	1	0	1	262.126	-1.00809	-1.00781	19.5551	-1.71965	38	0.316872	-0.0197078	-1.32468
2	1	0	1	262.46	-1.00476	-1.0052	21.4409	-1.71275	38	0.294372	-0.0215523	-1.29957
2	1	0	1	262.793	-1.00143	-1.00154	23.1961	-1.70524	38	0.273728	-0.0232319	-1.27527
2	1	0	1	263.126	-0.998092	-0.998112	24.8734	-1.69716	38	0.254808	-0.0248264	-1.25292
2	1	0	1	263.46	-0.994757	-0.995594	26.6116	-1.68851	38	0.228667	-0.0264944	-1.22426
2	1	0	1	263.793	-0.991423	-0.990809	27.9086	-1.67935	38	0.00648172	-0.0276521	-0.997291
2	1	0	1	264.126	-0.988091	-0.986155	28.4917	-1.6699	38	-0.893252	-0.0280972	-0.0929032
2	1	0	1	264.46	-0.984757	-0.98586	30.7399	-1.65996	38	-1.049	-0.0303053	0.0631369
2	1	0	1	264.793	-0.981424	-0.984694	32.8003	-1.64929	38	-1.07124	-0.0322982	0.0865462
2	1	0	1	265.127	-0.97809	-0.978083	34.5194	-1.638	38	-1.08033	-0.0337628	0.102251
2	1	0	1	265.46	-0.974756	-0.97525	36.0968	-1.62615	38	-1.08452	-0.0352034	0.109271
2	1	0	1	265.793	-0.971422	-0.973201	37.4972	-1.61382	38	-1.08894	-0.0364923	0.115739
2	1	0	1	266.127	-0.968087	-0.965828	38.7905	-1.60103	38	-1.09346	-0.037465	0.127627
2	1	0	1	266.46	-0.964754	-0.967094	40.0292	-1.58782	38	-1.0979	-0.038712	0.130801
2	1	0	1	266.793	-0.96142	-0.960872	41.1477	-1.57422	38	-1.10127	-0.0395377	0.140402
2	1	0	1	267.127	-0.958088	-0.961055	42.2117	-1.56026	38	-1.10508	-0.0405678	0.144026
2	1	0	1	267.46	-0.954754	-0.957625	43.2656	-1.54594	38	-1.10779	-0.0414323	0.150163
2	1	0	1	267.777	-0.951587	-0.9491	44.24	-1.53203	38	-1.11053	-0.0419882	0.161433
2	1	0	0	267.919	-0.949919	-0.943718	45.3688	-1.52571	38	-1.11249	-0.0428154	0.168775
2	0	0	0	357.947	-1.21695	-1.21797	-199.517	-0.0071018	37	0.635098	0.243006	-1.85307
2	0	0	1	358.131	-1.21512	-1.21532	-196.78	-0.0432158	37	0.633743	0.239151	-1.84906
2	0	0	1	358.464	-1.21178	-1.21222	-192.273	-0.107967	37	0.632049	0.233078	-1.84427
2	0	0	1	358.797	-1.20845	-1.20867	-187.864	-0.171232	37	0.630719	0.227066	-1.83939
2	0	0	1	359.131	-1.20512	-1.20568	-183.907	-0.233093	37	0.629215	0.221732	-1.83489
2	0	0	1	359.464	-1.20178	-1.20235	-179.584	-0.293568	37	0.627648	0.215923	-1.83
2	0	0	1	359.797	-1.19845	-1.1998	-175.343	-0.352634	37	0.626125	0.210376	-1.82593
2	0	0	1	360.131	-1.19511	-1.19565	-171.123	-0.410291	37	0.624705	0.204604	-1.82036
2	0	0	1	360.464	-1.19178	-1.19232	-166.815	-0.466523	37	0.623116	0.198897	-1.81544
2	0	0	1	360.798	-1.18845	-1.18919	-162.639	-0.521344	37	0.6217	0.193408	-1.81089
2	0	0	1	361.131	-1.18511	-1.18574	-158.533	-0.574786	37	0.62002	0.18798	-1.80576
2	0	0	1	361.464	-1.18178	-1.18194	-154.251	-0.626807	37	0.618432	0.182315	-1.80037
2	0	0	1	361.798	-1.17845	-1.17935	-150.193	-0.677442	37	0.616902	0.177131	-1.79626
2	0	0	1	362.131	-1.17511	-1.17529	-146.201	-0.726752	37	0.615274	0.171829	-1.79056
2	0	0	1	362.464	-1.17178	-1.17213	-142.074	-0.774707	37	0.613556	0.16653	-1.78569
2	0	0	1	362.798	-1.16844	-1.1687	-137.984	-0.82129	37	0.611983	0.161262	-1.78068
2	0	0	1	363.131	-1.16511	-1.16577	-133.964	-0.866523	37	0.610441	0.156171	-1.77621
2	0	0	1	363.465	-1.16178	-1.16201	-129.915	-0.910412	37	0.608955	0.150963	-1.77097
2	0	0	1	363.798	-1.15844	-1.1587	-126.105	-0.952977	37	0.607314	0.146118	-1.76601
2	0	0	1	364.131	-1.15511	-1.15597	-122.081	-0.994237	37	0.605572	0.141122	-1.76154
2	0	0	1	364.465	-1.15178	-1.15223	-118.081	-1.03417	37	0.603944	0.136057	-1.75618
2	0	0	1	364.798	-1.14844	-1.14923	-114.134	-1.07278	37	0.602301	0.131167	-1.75153
2	0	0	1	365.131	-1.14511	-1.14554	-110.199	-1.11008	37	0.600496	0.126237	-1.74603
2	0	0	1	365.465	-1.14177	-1.14131	-106.452	-1.14609	37	0.59883	0.121495	-1.74014
2	0	0	1	365.798	-1.13844	-1.13847	-102.556	-1.18083	37	0.597084	0.116757	-1.73555
2	0	0	1	366.131	-1.13511	-1.13658	-98.7214	-1.21428	37	0.595157	0.112205	-1.73174
2	0	0	1	366.465	-1.13177	-1.13187	-94.9572	-1.24646	37	0.593864	0.107479	-1.72573
2	0	0	1	366.798	-1.12844	-1.12858	-91.342	-1.27741	37	0.59172	0.103087	-1.7203
2	0	0	1	367.132	-1.12511	-1.12584	-87.633	-1.30714	37	0.58985	0.0986612	-1.71569
2	0	0	1	367.465	-1.12177	-1.12185	-83.9866	-1.33566	37	0.588181	0.0942205	-1.71003
2	0	0	1	367.798	-1.11844	-1.11954	-80.4137	-1.36297	37	0.586531	0.0900263	-1.70607
2	0	0	1	368.132	-1.1151	-1.11502	-76.9663	-1.38911	37	0.584481	0.0858191	-1.6995
2	0	0	1	368.465	-1.11177	-1.11299	-73.4389	-1.41408	37	0.582766	0.0817366	-1.69575
2	0	0	1	368.798	-1.10844	-1.10755	-69.9734	-1.43788	37	0.580652	0.0774992	-1.68821
2	0	0	1	369.132	-1.1051	-1.10529	-66.5465	-1.46054	37	0.578988	0.0735534	-1.68428
2	0	0	1	369.465	-1.10177	-1.10336	-63.1991	-1.48207	37	0.576935	0.0697313	-1.68029
2	0	0	1	369.799	-1.09844	-1.09797	-59.8822	-1.50249	37	0.574941	0.0657487	-1.67291
2	0	0	1	370.132	-1.0951	-1.09536	-56.6253	-1.52181	37	0.572908	0.0620248	-1.66826
2	0	0	1	370.465	-1.09177	-1.0926	-53.4208	-1.54006	37	0.570962	0.0583674	-1.66356
2	0	0	1	370.799	-1.08844	-1.0898	-50.2193	-1.55724	37	0.569016	0.054729	-1.65882
2	0	0	1	371.132	-1.0851	-1.08439	-47.1123	-1.57337	37	0.566354	0.0510883	-1.65075
2	0	0	1	371.482	-1.0816	-1.0821	-43.9763	-1.58919	37	0.564656	0.047587	-1.64676
2	0	0	1	371.832	-1.0781	-1.07919	-40.7824	-1.60395	38	0.56224	0.0440122	-1.64143
2	0	0	1	372.166	-1.07477	-1.07624	-37.7667	-1.61695	38	0.559916	0.0406459	-1.63615
2	0	0	1	372.499	-1.07143	-1.07178	-34.785	-1.62895	38	0.557645	0.0372817	-1.62942
2	0	0	1	372.832	-1.0681	-1.06844	-31.8187	-1.63996	38	0.555202	0.0339965	-1.62365
2	0	0	1	373.166	-1.06477	-1.06405	-28.8951	-1.64999	38	0.552662	0.0307457	-1.61671
2	0	0	1	373.499	-1.06143	-1.06163	-26.0072	-1.65904	38	0.549843	0.02761	-1.61147
2	0	0	1	373.832	-1.0581	-1.05856	-23.1595	-1.66715	38	0.547155	0.0245157	-1.60571
2	0	0	1	374.166	-1.05476	-1.056	-20.334	-1.67431	38	0.543773	0.0214727	-1.59978
2	0	0	1	374.499	-1.05143	-1.05315	-17.4616	-1.68051	38	0.54043	0.0183897	-1.59358
2	0	0	1	374.832	-1.0481	-1.04919	-14.5944	-1.68576	38	0.536329	0.0153122	-1.58552
2	0	0	1	375.166	-1.04476	-1.04444	-11.7334	-1.69006	38	0.532053	0.0122548	-1.57649
2	0	0	1	375.499	-1.04143	-1.04136	-8.7887	-1.69339	38	0.527003	0.00915223	-1.56837
2	0	0	1	375.849	-1.03793	-1.03916	-5.68478	-1.6958	38	0.520067	0.00590741	-1.55923
2	0	0	1	376.199	-1.03443	-1.03477	-2.44694	-1.69715	39	0.510291	0.00253202	-1.54506
2	0	0	1	376.533	-1.0311	-1.03146	0.754833	-1.69733	39	0.495683	-0.00077858	-1.52714
2	1	0	1	376.866	-1.02776	-1.02898	3.96127	-1.69645	39	0.474918	-0.00407607	-1.5039
2	1	0	1	377.199	-1.02443	-1.02499	7.04735	-1.69452	39	0.44764	-0.00722345	-1.47263
2	1	0	1	377.549	-1.02093	-1.01984	10.179	-1.69138	39	0.414513	-0.0103809	-1.43435
2	1	0	1	377.9	-1.01743	-1.01771	13.2792	-1.6872	38	0.380729	-0.0135144	-1.39844
2	1	0	1	378.233	-1.01409	-1.0158	16.2262	-1.68219	38	0.349692	-0.0164825	-1.36549
2	1	0	1	378.566	-1.01076	-1.01164	18.6886	-1.67628	38	0.325105	-0.0189061	-1.33674
2	1	0	1	378.9	-1.00743	-1.0071	20.6134	-1.66964	38	0.304582	-0.0207598	-1.31168
2	1	0	1	379.233	-1.00409	-1.00582	22.3573	-1.66239	38	0.284765	-0.0224875	-1.29059
2	1	0	1	379.566	-1.00076	-1.00204	23.8657	-1.65461	38	0.268741	-0.0239143	-1.27078
2	1	0	1	379.9	-0.997424	-0.997818	25.3738	-1.64632	38	0.253145	-0.0253185	-1.25096
2	1	0	1	380.233	-0.99409	-0.994635	27.0997	-1.63749	38	0.230071	-0.0269543	-1.22471
2	1	0	1	380.566	-0.990757	-0.990426	28.4366	-1.62815	38	0.0253621	-0.0281643	-1.01579
2	1	0	1	380.9	-0.987424	-0.987644	28.9489	-1.61852	38	-0.877524	-0.0285912	-0.110119
2	1	0	1	381.233	-0.984091	-0.983874	31.1732	-1.60842	38	-1.0475	-0.0306705	0.0636246
2	1	0	1	381.567	-0.980756	-0.980128	33.1831	-1.5976	38	-1.06533	-0.0325237	0.085206
2	1	0	1	381.9	-0.977423	-0.977616	34.8635	-1.58618	38	-1.07429	-0.0340831	0.0966707
2	1	0	1	382.233	-0.974088	-0.97407	36.3964	-1.57422	38	-1.0783	-0.0354526	0.10423
2	1	0	1	382.567	-0.970754	-0.969783	37.6838	-1.56179	38	-1.08266	-0.0365451	0.112875
2	1	0	1	382.9	-0.967421	-0.968122	38.8845	-1.54895	38	-1.08763	-0.0376449	0.119506
2	1	0	1	383.233	-0.964088	-0.96321	40.0492	-1.53572	38	-1.09229	-0.0385758	0.129081
2	1	0	1	383.567	-0.960755	-0.962478	41.1451	-1.52211	38	-1.09599	-0.0396013	0.133512
2	1	0	1	383.9	-0.957421	-0.957961	42.2191	-1.50814	38	-1.09964	-0.0404443	0.141674
2	1	0	1	384.234	-0.954087	-0.955562	43.2784	-1.49381	38	-1.10244	-0.0413552	0.146876
2	1	0	1	384.517	-0.951252	-0.952034	44.1701	-1.48137	38	-1.10479	-0.0420514	0.152751
2	1	0	0	384.626	-0.949919	-0.950147	45.2325	-1.47655	38	-1.10622	-0.0429775	0.156078
2	0	0	0	474.654	-1.21362	-1.21371	-199.745	-0.00710812	37	0.632613	0.242432	-1.84632
2	0	0	1	474.837	-1.21178	-1.21115	-196.933	-0.0432478	37	0.631305	0.238516	-1.84246
2	0	0	1	475.171	-1.20845	-1.20958	-192.361	-0.108032	37	0.629904	0.232677	-1.83949
2	0	0	1	475.504	-1.20511	-1.20586	-187.948	-0.171322	37	0.62827	0.226639	-1.83413
2	0	0	1	475.837	-1.20178	-1.20323	-183.417	-0.233102	37	0.626963	0.220693	-1.8302
2	0	0	1	476.171	-1.19845	-1.19968	-179.086	-0.293409	37	0.625082	0.214846	-1.82476
2	0	0	1	476.504	-1.19512	-1.19579	-174.568	-0.352253	37	0.623545	0.208747	-1.81934
2	0	0	1	476.837	-1.19178	-1.19229	-170.161	-0.409609	37	0.622236	0.202882	-1.81453
2	0	0	1	477.171	-1.18845	-1.1886	-165.861	-0.465519	37	0.620667	0.197143	-1.80927
2	0	0	1	477.504	-1.18511	-1.18602	-161.632	-0.520005	37	0.619035	0.191699	-1.80505
2	0	0	1	477.838	-1.18178	-1.18222	-157.479	-0.573096	37	0.617394	0.186175	-1.79962
2	0	0	1	478.171	-1.17845	-1.17878	-153.242	-0.624769	37	0.616162	0.180639	-1.79494
2	0	0	1	478.504	-1.17511	-1.17548	-149.013	-0.675036	37	0.614461	0.175162	-1.78994
2	0	0	1	478.838	-1.17178	-1.17139	-144.706	-0.723893	37	0.612538	0.169507	-1.78393
2	0	0	1	479.171	-1.16844	-1.1688	-140.582	-0.771342	37	0.610746	0.164312	-1.77955
2	0	0	1	479.504	-1.16511	-1.165	-136.437	-0.817414	37	0.609315	0.15895	-1.77432
2	0	0	1	479.838	-1.16178	-1.16297	-132.293	-0.862105	37	0.607565	0.153852	-1.77053
2	0	0	1	480.171	-1.15844	-1.15815	-128.252	-0.905432	37	0.605901	0.148534	-1.76405
2	0	0	1	480.504	-1.15511	-1.15566	-124.136	-0.947387	37	0.604307	0.143459	-1.75996
2	0	0	1	480.838	-1.15178	-1.15207	-120.207	-0.988003	37	0.60274	0.138487	-1.75481
2	0	0	1	481.171	-1.14844	-1.14917	-116.237	-1.02731	37	0.60134	0.133576	-1.75051
2	0	0	1	481.505	-1.14511	-1.1456	-112.248	-1.0653	37	0.599329	0.128592	-1.74493
2	0	0	1	481.838	-1.14177	-1.14137	-108.322	-1.10196	37	0.597666	0.123635	-1.73903
2	0	0	1	482.171	-1.13844	-1.13837	-104.468	-1.13733	37	0.595488	0.118923	-1.73385
2	0	0	1	482.505	-1.13511	-1.13575	-100.665	-1.17142	37	0.594105	0.114331	-1.72986
2	0	0	1	482.838	-1.13177	-1.13239	-96.7716	-1.20422	37	0.592276	0.109583	-1.72466
2	0	0	1	483.171	-1.12844	-1.12894	-93.0025	-1.23576	37	0.590477	0.104994	-1.71942
2	0	0	1	483.505	-1.12511	-1.12525	-89.3083	-1.26604	37	0.588785	0.100494	-1.71403
2	0	0	1	483.838	-1.12177	-1.12221	-85.6586	-1.29511	37	0.586901	0.0961266	-1.70911
2	0	0	1	484.172	-1.11844	-1.1188	-82.0316	-1.32297	37	0.585177	0.0917771	-1.70398
2	0	0	1	484.505	-1.1151	-1.11521	-78.5846	-1.34965	37	0.583307	0.0876386	-1.69852
2	0	0	1	484.838	-1.11177	-1.11233	-75.0025	-1.37515	37	0.581529	0.0834276	-1.69386
2	0	0	1	485.172	-1.10844	-1.10896	-71.4627	-1.39947	37	0.579646	0.0792491	-1.6886
2	0	0	1	485.505	-1.1051	-1.1055	-67.9287	-1.4226	37	0.577691	0.0750953	-1.68319
2	0	0	1	485.838	-1.10177	-1.10253	-64.4373	-1.44457	37	0.575677	0.071044	-1.67821
2	0	0	1	486.172	-1.09844	-1.09894	-61.0432	-1.46538	37	0.573656	0.0670828	-1.6726
2	0	0	1	486.505	-1.0951	-1.09594	-57.6944	-1.48508	37	0.571577	0.0632296	-1.66752
2	0	0	1	486.839	-1.09177	-1.09161	-54.3835	-1.50367	37	0.569613	0.0593657	-1.66123
2	0	0	1	487.172	-1.08843	-1.08888	-51.1158	-1.52116	37	0.56746	0.0556589	-1.65634
2	0	0	1	487.505	-1.0851	-1.08558	-47.9235	-1.53757	37	0.56549	0.0520246	-1.65107
2	0	0	1	487.855	-1.0816	-1.08155	-44.6349	-1.55364	37	0.563022	0.048275	-1.64458
2	0	0	1	488.205	-1.0781	-1.078	-41.4135	-1.56864	38	0.56069	0.0446439	-1.63869
2	0	0	1	488.539	-1.07477	-1.07558	-38.3976	-1.58185	38	0.558429	0.0412998	-1.63401
2	0	0	1	488.872	-1.07143	-1.07274	-35.3443	-1.59405	38	0.556041	0.0379154	-1.62878
2	0	0	1	489.205	-1.0681	-1.06846	-32.3119	-1.60523	38	0.553882	0.034524	-1.62234
2	0	0	1	489.539	-1.06477	-1.06414	-29.316	-1.6154	38	0.550581	0.0311964	-1.61472
2	0	0	1	489.872	-1.06143	-1.06168	-26.3882	-1.62459	38	0.547903	0.0280158	-1.60958
2	0	0	1	490.206	-1.0581	-1.05886	-23.4572	-1.63281	38	0.544958	0.0248379	-1.60382
2	0	0	1	490.539	-1.05476	-1.05383	-20.5453	-1.64005	38	0.541937	0.0216513	-1.59577
2	0	0	1	490.872	-1.05143	-1.05136	-17.6248	-1.64631	38	0.538374	0.0185299	-1.58973
2	0	0	1	491.206	-1.0481	-1.04871	-14.7151	-1.65161	38	0.534552	0.0154319	-1.58326
2	0	0	1	491.539	-1.04476	-1.04543	-11.8053	-1.65593	38	0.530247	0.0123416	-1.57568
2	0	0	1	491.872	-1.04143	-1.04254	-8.80493	-1.65928	38	0.524777	0.00917952	-1.56732
2	0	0	1	492.206	-1.0381	-1.03838	-5.74654	-1.66161	38	0.518311	0.00596712	-1.5567
2	0	0	1	492.573	-1.03443	-1.03401	-2.31241	-1.66298	39	0.507601	0.00239106	-1.54161
2	0	0	1	492.906	-1.03109	-1.0317	0.944099	-1.66311	39	0.493547	-0.000974022	-1.52524
2	1	0	1	493.239	-1.02776	-1.02815	4.15689	-1.66216	39	0.472671	-0.00427392	-1.50082
2	1	0	1	493.573	-1.02443	-1.0252	7.23673	-1.66017	39	0.445737	-0.00741909	-1.47094
2	1	0	1	493.923	-1.02093	-1.02085	10.3652	-1.65696	39	0.413102	-0.0105812	-1.43395
2	1	0	1	494.273	-1.01743	-1.01689	13.5452	-1.65269	38	0.378912	-0.013774	-1.3958
2	1	0	1	494.606	-1.01409	-1.01352	16.4961	-1.64759	38	0.348876	-0.0167191	-1.36239
2	1	0	1	494.939	-1.01076	-1.01114	18.8042	-1.64161	38	0.324244	-0.0190137	-1.33538
2	1	0	1	495.273	-1.00743	-1.00673	20.6034	-1.63496	38	0.303664	-0.0207421	-1.3104
2	1	0	1	495.606	-1.00409	-1.00527	22.1755	-1.62774	38	0.28651	-0.0222924	-1.29178
2	1	0	1	495.94	-1.00076	-1.00047	23.6079	-1.62003	38	0.272739	-0.0236191	-1.27321
2	1	0	1	496.273	-0.997425	-0.997896	25.0678	-1.61183	38	0.259336	-0.0250151	-1.25723
2	1	0	1	496.606	-0.994091	-0.994883	26.5621	-1.60315	38	0.243964	-0.0264261	-1.23885
2	1	0	1	496.94	-0.990757	-0.990865	28.3003	-1.59392	38	0.195963	-0.0280418	-1.18683
2	1	0	1	497.273	-0.987424	-0.988255	29.1031	-1.58427	38	-0.268551	-0.0287613	-0.719705
2	1	0	1	497.606	-0.984091	-0.984906	30.3838	-1.5743	38	-1.00761	-0.0299252	0.0227023
2	1	0	1	497.94	-0.980757	-0.979552	32.6122	-1.56371	38	-1.05886	-0.0319454	0.0793037
2	1	0	1	498.273	-0.977423	-0.977356	34.3933	-1.55245	38	-1.06785	-0.0336145	0.0904931
2	1	0	1	498.607	-0.974089	-0.973094	35.9564	-1.54064	38	-1.07414	-0.034989	0.101047
2	1	0	1	498.94	-0.970755	-0.972218	37.3294	-1.52835	38	-1.07872	-0.0362923	0.106501
2	1	0	1	499.273	-0.967421	-0.96642	38.5333	-1.51562	38	-1.08337	-0.0372393	0.116945
2	1	0	1	499.607	-0.964088	-0.965512	39.6853	-1.50251	38	-1.08766	-0.0383167	0.122152
2	1	0	1	499.94	-0.960754	-0.958257	40.7635	-1.48902	38	-1.09125	-0.0390619	0.132995
2	1	0	1	500.273	-0.957421	-0.956569	41.8634	-1.47518	38	-1.0949	-0.0400452	0.138332
2	1	0	1	500.607	-0.954087	-0.957107	42.9746	-1.46096	38	-1.0977	-0.0411313	0.140595
2	1	0	1	500.89	-0.951253	-0.953098	43.9643	-1.4486	38	-1.10028	-0.0419023	0.147177
2	1	0	1	500.999	-0.949919	-0.950227	45.0418	-1.44379	38	-1.10311	-0.0427999	0.152882
2	0	0	0	590.027	-1.20862	-1.20783	-194.826	-0.0069361	37	0.63062	0.235316	-1.83845
2	0	0	1	590.21	-1.20678	-1.20777	-192.316	-0.042231	37	0.629089	0.232274	-1.83686
2	0	0	1	590.544	-1.20345	-1.20383	-186.525	-0.105249	37	0.626143	0.224544	-1.82997
2	0	0	1	590.877	-1.20011	-1.20034	-182.012	-0.166575	37	0.624371	0.218476	-1.82471
2	0	0	1	591.21	-1.19678	-1.19633	-177.591	-0.226394	37	0.622897	0.212458	-1.81923
2	0	0	1	591.544	-1.19345	-1.19364	-173.211	-0.284746	37	0.621041	0.206752	-1.81468
2	0	0	1	591.877	-1.19011	-1.18998	-168.915	-0.341671	37	0.619826	0.201005	-1.8098
2	0	0	1	592.21	-1.18678	-1.18763	-164.613	-0.397164	37	0.618411	0.195499	-1.80604
2	0	0	1	592.544	-1.18345	-1.18356	-160.278	-0.451214	37	0.616634	0.189699	-1.8002
2	0	0	1	592.877	-1.18011	-1.18079	-156.057	-0.503842	37	0.615072	0.184269	-1.79586
2	0	0	1	593.211	-1.17678	-1.17687	-151.687	-0.555039	37	0.613529	0.178516	-1.7904
2	0	0	1	593.544	-1.17345	-1.17335	-147.422	-0.604779	37	0.612168	0.172978	-1.78552
2	0	0	1	593.877	-1.17011	-1.17142	-143.189	-0.653103	37	0.610426	0.167735	-1.78185
2	0	0	1	594.211	-1.16678	-1.1665	-138.972	-0.700032	37	0.608922	0.16211	-1.77542
2	0	0	1	594.544	-1.16344	-1.16301	-134.994	-0.745595	37	0.607269	0.156999	-1.77028
2	0	0	1	594.877	-1.16011	-1.16051	-130.785	-0.789794	37	0.605534	0.151777	-1.76604
2	0	0	1	595.211	-1.15678	-1.15635	-126.672	-0.832603	37	0.604136	0.146477	-1.76048
2	0	0	1	595.544	-1.15344	-1.1536	-122.526	-0.874036	37	0.602178	0.141347	-1.75578
2	0	0	1	595.877	-1.15011	-1.15083	-118.426	-0.914085	37	0.600596	0.136288	-1.75142
2	0	0	1	596.211	-1.14678	-1.1469	-114.425	-0.952784	37	0.598771	0.131233	-1.74567
2	0	0	1	596.544	-1.14344	-1.14462	-110.548	-0.990184	37	0.596918	0.126535	-1.74154
2	0	0	1	596.878	-1.14011	-1.14037	-106.599	-1.02628	37	0.595348	0.121563	-1.73572
2	0	0	1	597.211	-1.13677	-1.13638	-102.692	-1.06106	37	0.593426	0.116697	-1.7298
2	0	0	1	597.544	-1.13344	-1.13301	-98.8583	-1.09456	37	0.591695	0.112008	-1.72471
2	0	0	1	597.878	-1.13011	-1.13173	-95.0616	-1.12678	37	0.590259	0.107584	-1.72199
2	0	0	1	598.211	-1.12677	-1.12869	-91.2461	-1.15773	37	0.588305	0.102988	-1.71699
2	0	0	1	598.544	-1.12344	-1.12444	-87.4206	-1.18741	37	0.586439	0.0982993	-1.71088
2	0	0	1	598.878	-1.12011	-1.12001	-83.8177	-1.21585	37	0.584673	0.0938764	-1.70468
2	0	0	1	599.211	-1.11677	-1.11758	-80.1812	-1.24308	37	0.582676	0.0896091	-1.70026
2	0	0	1	599.545	-1.11344	-1.11347	-76.5475	-1.26911	37	0.580893	0.0852337	-1.69437
2	0	0	1	599.878	-1.1101	-1.10987	-72.9588	-1.29393	37	0.578757	0.0809748	-1.68863
2	0	0	1	600.211	-1.10677	-1.10811	-69.4304	-1.31757	37	0.577028	0.0769367	-1.68514
2	0	0	1	600.545	-1.10344	-1.10389	-65.9318	-1.34004	37	0.574938	0.0727816	-1.67883
2	0	0	1	600.878	-1.1001	-1.10023	-62.495	-1.36134	37	0.573155	0.0687586	-1.67338
2	0	0	1	601.211	-1.09677	-1.09717	-59.2195	-1.38153	37	0.571081	0.0649741	-1.66825
2	0	0	1	601.545	-1.09344	-1.09392	-55.8711	-1.40061	37	0.569566	0.0611184	-1.66348
2	0	0	1	601.878	-1.0901	-1.08874	-52.5233	-1.41858	37	0.567136	0.057184	-1.65587
2	0	0	1	602.212	-1.08677	-1.08627	-49.3068	-1.43547	37	0.564874	0.0535606	-1.65115
2	0	0	1	602.545	-1.08343	-1.08408	-46.1404	-1.45128	37	0.562739	0.0500199	-1.64682
2	0	0	1	602.912	-1.07977	-1.07988	-42.8725	-1.46751	38	0.560358	0.0462971	-1.64024
2	0	0	1	603.245	-1.07643	-1.07683	-39.7536	-1.48119	38	0.557878	0.0428077	-1.6347
2	0	0	1	603.578	-1.0731	-1.07404	-36.6773	-1.49384	38	0.555431	0.0393929	-1.62947
2	0	0	1	603.912	-1.06977	-1.06971	-33.6397	-1.50547	38	0.553138	0.0359848	-1.62285
2	0	0	1	604.245	-1.06643	-1.06608	-30.6091	-1.51608	38	0.550527	0.0326318	-1.61661
2	0	0	1	604.578	-1.0631	-1.06392	-27.6482	-1.5257	38	0.547738	0.0294155	-1.61166
2	0	0	1	604.912	-1.05977	-1.06001	-24.7433	-1.53434	38	0.544904	0.0262283	-1.60492
2	0	0	1	605.245	-1.05643	-1.05664	-21.8218	-1.54201	38	0.541895	0.0230577	-1.59853
2	0	0	1	605.579	-1.0531	-1.05275	-18.8999	-1.54871	38	0.538477	0.0198969	-1.59123
2	0	0	1	605.912	-1.04976	-1.05137	-15.9633	-1.55443	38	0.534872	0.0167833	-1.58624
2	0	0	1	606.245	-1.04643	-1.04571	-13.0243	-1.55917	38	0.530749	0.0136197	-1.57646
2	0	0	1	606.579	-1.0431	-1.04263	-10.0583	-1.56293	38	0.525847	0.0104871	-1.56848
2	0	0	1	606.912	-1.03976	-1.04085	-7.04352	-1.56569	38	0.519796	0.00733126	-1.56065
2	0	0	1	607.262	-1.03626	-1.03489	-3.83347	-1.56747	38	0.511367	0.00396721	-1.54625
2	0	0	1	607.612	-1.03276	-1.0327	-0.448907	-1.56815	39	0.499348	0.000463589	-1.53205
2	1	0	1	607.946	-1.02943	-1.02941	2.77902	-1.56767	39	0.481811	-0.00286076	-1.51122
2	1	0	1	608.279	-1.02609	-1.0252	5.90777	-1.56613	39	0.45797	-0.00605666	-1.48317
2	1	0	1	608.612	-1.02276	-1.02303	8.92043	-1.56357	39	0.429024	-0.00912582	-1.45205
2	1	0	1	608.946	-1.01943	-1.0226	11.8638	-1.56	38	0.396764	-0.012132	-1.41937
2	1	0	1	609.279	-1.01609	-1.01543	14.9745	-1.55544	38	0.365136	-0.0152056	-1.38057
2	1	0	1	609.612	-1.01276	-1.01067	17.6613	-1.54991	38	0.337601	-0.0178498	-1.34827
2	1	0	1	609.946	-1.00943	-1.00823	19.6758	-1.5436	38	0.315162	-0.0198377	-1.32339
2	1	0	1	610.279	-1.00609	-1.00957	21.3203	-1.53669	38	0.296409	-0.0215244	-1.30598
2	1	0	1	610.613	-1.00276	-1.0023	22.6754	-1.52928	38	0.282466	-0.0227277	-1.28477
2	1	0	1	610.946	-0.999425	-0.99971	23.9925	-1.52143	38	0.270509	-0.0239855	-1.27022
2	1	0	1	611.279	-0.996092	-0.995937	25.3385	-1.51313	38	0.259023	-0.0252355	-1.25496
2	1	0	1	611.613	-0.992758	-0.991085	26.7631	-1.50437	38	0.246004	-0.0265245	-1.23709
2	1	0	1	611.946	-0.989424	-0.989633	28.3751	-1.49511	38	0.205639	-0.028081	-1.19527
2	1	0	1	612.279	-0.98609	-0.986802	29.532	-1.48538	38	-0.134267	-0.0291423	-0.852536
2	1	0	1	612.613	-0.982756	-0.981325	30.4459	-1.47533	38	-0.989349	-0.0298774	0.00802398
2	1	0	1	612.946	-0.979422	-0.979769	32.6892	-1.46473	38	-1.0607	-0.0320278	0.0809357
2	1	0	1	613.279	-0.976089	-0.976745	34.4652	-1.45346	38	-1.06691	-0.0336638	0.0901684
2	1	0	1	613.613	-0.972755	-0.973383	36.0399	-1.44163	38	-1.07202	-0.0350806	0.0986371
2	1	0	1	613.946	-0.969422	-0.96833	37.3503	-1.42933	38	-1.07703	-0.0361675	0.108704
2	1	0	1	614.28	-0.966088	-0.967198	38.5427	-1.41661	38	-1.08223	-0.0372784	0.115034
2	1	0	1	614.613	-0.962754	-0.96178	39.667	-1.4035	38	-1.0869	-0.0381509	0.125116
2	1	0	1	614.946	-0.95942	-0.958093	40.7901	-1.39002	38	-1.09044	-0.0390807	0.132347
2	1	0	1	615.28	-0.956086	-0.956697	41.8924	-1.37617	38	-1.09396	-0.0400783	0.137268
2	1	0	1	615.613	-0.952752	-0.95341	43.0172	-1.36194	38	-1.09718	-0.041013	0.143767
2	1	0	1	615.83	-0.950586	-0.948732	43.7551	-1.35254	38	-1.09887	-0.0415118	0.15014
2	1	0	1	615.872	-0.949919	-0.948462	44.5778	-1.35068	38	-1.1007	-0.0422803	0.152239