File: TS-82-25-08-60-400c_2024-08-22_C01.txt
mode	error	time/s	<Ewe/V>
3	0	0.5	-0.465186
3	0	3.5	-0.46518
3	0	6.5	-0.465167
3	0	9.5	-0.465152
3	0	12.5	-0.465143
3	0	15.5	-0.465137
3	0	18.5	-0.465142
3	0	21.5	-0.465135
3	0	24.5	-0.465131
3	0	27.5	-0.465031
3	0	30.5	-0.46489
3	0	33.5	-0.464757
3	0	36.5	-0.464615
3	0	39.5	-0.464488
3	0	42.5	-0.464355
3	0	45.5	-0.46424
3	0	48.5	-0.464136
3	0	51.5	-0.464044
3	0	54.5	-0.463969
3	0	57.5	-0.4635
3	0	60.5	-0.46342
3	0	63.5	-0.463473
3	0	66.5	-0.463655
3	0	69.5	-0.463712
3	0	72.5	-0.463773
3	0	75.5	-0.463831
3	0	78.5	-0.463898
3	0	81.5	-0.463963
3	0	84.5	-0.464067
3	0	87.5	-0.464162
3	0	90.5	-0.464275
3	0	93.5	-0.464395
3	0	96.5	-0.464488
3	0	99.5	-0.464558
3	0	102.5	-0.46461
3	0	105.5	-0.464661
3	0	108.5	-0.464705
3	0	111.5	-0.464743
3	0	114.5	-0.464786
3	0	117.5	-0.464826
3	0	120.5	-0.464858
3	0	123.5	-1.80076
3	0	126.5	-1.89521
3	0	129.5	-1.81092
3	0	132.5	-1.85615
3	0	135.5	-1.89671
3	0	138.5	-1.90501
3	0	141.5	-1.97828
3	0	144.5	-1.97176
3	0	147.5	-1.98876
3	0	150.5	-2.03017
3	0	153.5	-2.01335
3	0	156.5	-1.99702
3	0	159.5	-2.01354
3	0	162.5	-1.98262
3	0	165.5	-1.9857
3	0	168.5	-2.02416
3	0	171.5	-1.98166
3	0	174.5	-1.97518
3	0	177.5	-1.97221
3	0	180.5	-1.94257
3	0	183.5	-1.92924
3	0	186.5	-1.93338
3	0	189.5	-1.92528
3	0	192.5	-1.90952
3	0	195.5	-1.90312
3	0	198.5	-1.87564
3	0	201.5	-1.87976
3	0	204.5	-1.84474
3	0	207.5	-1.8806
3	0	210.5	-1.85098
3	0	213.5	-1.84112
3	0	216.5	-1.80692
3	0	219.5	-1.81082
3	0	222.5	-1.87931
3	0	225.5	-1.85874
3	0	228.5	-1.82499
3	0	231.5	-1.83099
3	0	234.5	-1.81581
3	0	237.5	-1.78576
3	0	240.5	-1.73021
3	0	243.5	-1.73747
3	0	246.5	-1.80708
3	0	249.5	-1.7651
3	0	252.5	-1.8004
3	0	255.5	-1.7894
3	0	258.5	-1.80299
3	0	261.5	-1.76493
3	0	264.5	-1.7699
3	0	267.5	-1.76761
3	0	270.5	-1.77182
3	0	273.5	-1.7424
3	0	276.5	-1.7722
3	0	279.5	-1.7571
3	0	282.5	-1.74262
3	0	285.5	-1.75115
3	0	288.5	-1.72626
3	0	291.5	-1.72036
3	0	294.5	-1.69883
3	0	297.5	-1.78706
3	0	300.5	-1.76362
3	0	303.5	-1.75831
3	0	306.5	-1.73705
3	0	309.5	-1.75577
3	0	312.5	-1.75035
3	0	315.5	-1.75824
3	0	318.5	-1.75148
3	0	321.5	-1.73738
3	0	324.5	-1.73479
3	0	327.5	-1.74944
3	0	330.5	-1.72491
3	0	333.5	-1.76312
3	0	336.5	-1.76678
3	0	339.5	-1.75762
3	0	342.5	-1.76058
3	0	345.5	-1.75914
3	0	348.5	-1.75751
3	0	351.5	-1.73326
3	0	354.5	-1.75919
3	0	357.5	-1.73959
3	0	360.5	-1.71894
3	0	363.5	-1.75862
3	0	366.5	-1.76815
3	0	369.5	-1.76877
3	0	372.5	-1.77204
3	0	375.5	-1.76761
3	0	378.5	-1.76755
3	0	381.5	-1.7737
3	0	384.5	-1.75742
3	0	387.5	-1.75738
3	0	390.5	-1.7681
3	0	393.5	-1.74221
3	0	396.5	-1.73567
3	0	399.5	-1.72104
3	0	402.5	-1.73357
3	0	405.5	-1.74205
3	0	408.5	-1.75799
3	0	411.5	-1.75453
3	0	414.5	-1.742
3	0	417.5	-1.74091
3	0	420.5	-1.74072
3	0	423.5	-1.71847
3	0	426.5	-1.72476
3	0	429.5	-1.73129
3	0	432.5	-1.71307
3	0	435.5	-1.69676
3	0	438.5	-1.693
3	0	441.5	-1.706
3	0	444.5	-1.70803
3	0	447.5	-1.71592
3	0	450.5	-1.71401
3	0	453.5	-1.70338
3	0	456.5	-1.70292
3	0	459.5	-1.67458
3	0	462.5	-1.70516
3	0	465.5	-1.6814
3	0	468.5	-1.69227
3	0	471.5	-1.68631
3	0	474.5	-1.67745
3	0	477.5	-1.67123
3	0	480.5	-1.6677
3	0	483.5	-1.65654
3	0	486.5	-1.68489
3	0	489.5	-1.67474
3	0	492.5	-1.67026
3	0	495.5	-1.67083
3	0	498.5	-1.68969
3	0	501.5	-1.68736
3	0	504.5	-1.68973
3	0	507.5	-1.69073
3	0	510.5	-1.70611
3	0	513.5	-1.69914
3	0	516.5	-1.69137
3	0	519.5	-1.6862
3	0	522.5	-1.67528
3	0	525.5	-1.67767
3	0	528.5	-1.66384
3	0	531.5	-1.68822
3	0	534.5	-1.67342
3	0	537.5	-1.66823
3	0	540.5	-1.72236
3	0	543.5	-1.70497
3	0	546.5	-1.70405
3	0	549.5	-1.7087
3	0	552.5	-1.69445
3	0	555.5	-1.6849
3	0	558.5	-1.68737
3	0	561.5	-1.6885
3	0	564.5	-1.68646
3	0	567.5	-1.68926
3	0	570.5	-1.68725
3	0	573.5	-1.68281
3	0	576.5	-1.66923
3	0	579.5	-1.67581
3	0	582.5	-1.69704
3	0	585.5	-1.6783
3	0	588.5	-1.67063
3	0	591.5	-1.69185
3	0	594.5	-1.68138
3	0	597.5	-1.68176
3	0	600.5	-1.67233
3	0	603.5	-1.67499
3	0	606.5	-1.67358
3	0	609.5	-1.66446
3	0	612.5	-1.65151
3	0	615.5	-1.64032
3	0	618.5	-1.65892
3	0	621.5	-1.64343
3	0	624.5	-1.661
3	0	627.5	-1.66891
3	0	630.5	-1.65969
3	0	633.5	-1.67341
3	0	636.5	-1.66886
3	0	639.5	-1.66452
3	0	642.5	-1.66945
3	0	645.5	-1.68107
3	0	648.5	-1.6782
3	0	651.5	-1.67924
3	0	654.5	-1.66998
3	0	657.5	-1.68878
3	0	660.5	-1.70248
3	0	663.5	-1.68613
3	0	666.5	-1.70188
3	0	669.5	-1.69667
3	0	672.5	-1.68902
3	0	675.5	-1.68539
3	0	678.5	-1.6927
3	0	681.5	-1.68493
3	0	684.5	-1.68333
3	0	687.5	-1.66425
3	0	690.5	-1.65905
3	0	693.5	-1.68473
3	0	696.5	-1.681
3	0	699.5	-1.6765
3	0	702.5	-1.67697
3	0	705.5	-1.66603
3	0	708.5	-1.65482
3	0	711.5	-1.64183
3	0	714.5	-1.63151
3	0	717.5	-1.65677
3	0	720.5	-1.66913
3	0	723.5	-1.66578
3	0	726.5	-1.6566
3	0	729.5	-1.64174
3	0	732.5	-1.66685
3	0	735.5	-1.64512
3	0	738.5	-1.64501
3	0	741.5	-1.66212
3	0	744.5	-1.64383
3	0	747.5	-1.63754
3	0	750.5	-1.63159
3	0	753.5	-1.65783
3	0	756.5	-1.6573
3	0	759.5	-1.64337
3	0	762.5	-1.64282
3	0	765.5	-1.65926
3	0	768.5	-1.66882
3	0	771.5	-1.66096
3	0	774.5	-1.66958
3	0	777.5	-1.66667
3	0	780.5	-1.66457
3	0	783.5	-1.65784
3	0	786.5	-1.66475
3	0	789.5	-1.66465
3	0	792.5	-1.67463
3	0	795.5	-1.67418
3	0	798.5	-1.67228
3	0	801.5	-1.67878
3	0	804.5	-1.66826
3	0	807.5	-1.6748
3	0	810.5	-1.67269
3	0	813.5	-1.68161
3	0	816.5	-1.67231
3	0	819.5	-1.65305
3	0	822.5	-1.68155
3	0	825.5	-1.66937
3	0	828.5	-1.66716
3	0	831.5	-1.65618
3	0	834.5	-1.67076
3	0	837.5	-1.66358
3	0	840.5	-1.66
3	0	843.5	-1.66383
3	0	846.5	-1.6558
3	0	849.5	-1.66281
3	0	852.5	-1.65208
3	0	855.5	-1.65684
3	0	858.5	-1.657
3	0	861.5	-1.64453
3	0	864.5	-1.65633
3	0	867.5	-1.64941
3	0	870.5	-1.66365
3	0	873.5	-1.64904
3	0	876.5	-1.65672
3	0	879.5	-1.6466
3	0	882.5	-1.65458
3	0	885.5	-1.64244
3	0	888.5	-1.64656
3	0	891.5	-1.64125
3	0	894.5	-1.65937
3	0	897.5	-1.65346
3	0	900.5	-1.67459
3	0	903.5	-1.66863
3	0	906.5	-1.65928
3	0	909.5	-1.65977
3	0	912.5	-1.65911
3	0	915.5	-1.657
3	0	918.5	-1.67336
3	0	921.5	-1.66722
3	0	924.5	-1.66333
3	0	927.5	-1.67458
3	0	930.5	-1.67099
3	0	933.5	-1.67885
3	0	936.5	-1.67295
3	0	939.5	-1.67811
3	0	942.5	-1.67003
3	0	945.5	-1.66775
3	0	948.5	-1.67445
3	0	951.5	-1.6742
3	0	954.5	-1.67244
3	0	957.5	-1.67331
3	0	960.5	-1.67234
3	0	963.5	-1.66245
3	0	966.5	-1.65792
3	0	969.5	-1.6558
3	0	972.5	-1.6508
3	0	975.5	-1.647
3	0	978.5	-1.63501
3	0	981.5	-1.63531
3	0	984.5	-1.64611
3	0	987.5	-1.64226
3	0	990.5	-1.64698
3	0	993.5	-1.64935
3	0	996.5	-1.63411
3	0	999.5	-1.63001
3	0	1002.5	-1.63915
3	0	1005.5	-1.63157
3	0	1008.5	-1.62898
3	0	1011.5	-1.6468
3	0	1014.5	-1.64685
3	0	1017.5	-1.63513
3	0	1020.5	-1.63751
3	0	1023.5	-1.63112
3	0	1026.5	-1.63583
3	0	1029.5	-1.65284
3	0	1032.5	-1.64757
3	0	1035.5	-1.64041
3	0	1038.5	-1.64629
3	0	1041.5	-1.6423
3	0	1044.5	-1.65417
3	0	1047.5	-1.65991
3	0	1050.5	-1.65773
3	0	1053.5	-1.6511
3	0	1056.5	-1.6634
3	0	1059.5	-1.66309
3	0	1062.5	-1.657
3	0	1065.5	-1.65007
3	0	1068.5	-1.67634
3	0	1071.5	-1.66222
3	0	1074.5	-1.65842
3	0	1077.5	-1.66635
3	0	1080.5	-1.64353
3	0	1083.5	-1.65144
3	0	1086.5	-1.6427
3	0	1089.5	-1.64842
3	0	1092.5	-1.64475
3	0	1095.5	-1.65505
3	0	1098.5	-1.64195
3	0	1101.5	-1.63461
3	0	1104.5	-1.64293
3	0	1107.5	-1.65282
3	0	1110.5	-1.64182
3	0	1113.5	-1.63482
3	0	1116.5	-1.64519
3	0	1119.5	-1.63937
3	0	1122.5	-1.63606
3	0	1125.5	-1.64519
3	0	1128.5	-1.64487
3	0	1131.5	-1.63361
3	0	1134.5	-1.62687
3	0	1137.5	-1.63417
3	0	1140.5	-1.62641
3	0	1143.5	-1.62114
3	0	1146.5	-1.6478
3	0	1149.5	-1.63702
3	0	1152.5	-1.64167
3	0	1155.5	-1.63851
3	0	1158.5	-1.65254
3	0	1161.5	-1.64685
3	0	1164.5	-1.64249
3	0	1167.5	-1.65705
3	0	1170.5	-1.64698
3	0	1173.5	-1.64257
3	0	1176.5	-1.63723
3	0	1179.5	-1.64944
3	0	1182.5	-1.65539
3	0	1185.5	-1.66286
3	0	1188.5	-1.67107
3	0	1191.5	-1.66629
3	0	1194.5	-1.66057
3	0	1197.5	-1.6716
3	0	1200.5	-1.66896
3	0	1203.5	-1.66494
3	0	1206.5	-1.66695
3	0	1209.5	-1.65923
3	0	1212.5	-1.63989
3	0	1215.5	-1.66039
3	0	1218.5	-1.64405
3	0	1221.5	-1.64906
3	0	1224.5	-1.64059
3	0	1227.5	-1.65242
3	0	1230.5	-1.63957
3	0	1233.5	-1.64633
3	0	1236.5	-1.63574
3	0	1239.5	-1.64421
3	0	1242.5	-1.64405
3	0	1245.5	-1.6344
3	0	1248.5	-1.63888
3	0	1251.5	-1.63621
3	0	1254.5	-1.64592
3	0	1257.5	-1.6358
3	0	1260.5	-1.62176
3	0	1263.5	-1.62301
3	0	1266.5	-1.62103
3	0	1269.5	-1.62984
3	0	1272.5	-1.63011
3	0	1275.5	-1.63743
3	0	1278.5	-1.63727
3	0	1281.5	-1.63942
3	0	1284.5	-1.64797
3	0	1287.5	-1.64066
3	0	1290.5	-1.6354
3	0	1293.5	-1.63517
3	0	1296.5	-1.63899
3	0	1299.5	-1.63425
3	0	1302.5	-1.62599
3	0	1305.5	-1.63188
3	0	1308.5	-1.65751
3	0	1311.5	-1.64214
3	0	1314.5	-1.64617
3	0	1317.5	-1.64487
3	0	1320.5	-1.6487
3	0	1323.5	-1.6303
3	0	1326.5	-1.64901
3	0	1329.5	-1.64105
3	0	1332.5	-1.63073
3	0	1335.5	-1.64773
3	0	1338.5	-1.64165
3	0	1341.5	-1.65391
3	0	1344.5	-1.63454
3	0	1347.5	-1.62562
3	0	1350.5	-1.63143
3	0	1353.5	-1.63699
3	0	1356.5	-1.63584
3	0	1359.5	-1.62853
3	0	1362.5	-1.63264
3	0	1365.5	-1.63153
3	0	1368.5	-1.62735
3	0	1371.5	-1.63565
3	0	1374.5	-1.63608
3	0	1377.5	-1.63252
3	0	1380.5	-1.62941
3	0	1383.5	-1.6257
3	0	1386.5	-1.63075
3	0	1389.5	-1.62025
3	0	1392.5	-1.62714
3	0	1395.5	-1.62962
3	0	1398.5	-1.62238
3	0	1401.5	-1.6241
3	0	1404.5	-1.62982
3	0	1407.5	-1.61986
3	0	1410.5	-1.62767
3	0	1413.5	-1.63035
3	0	1416.5	-1.62388
3	0	1419.5	-1.6399
3	0	1422.5	-1.63431
3	0	1425.5	-1.62896
3	0	1428.5	-1.64345
3	0	1431.5	-1.65431
3	0	1434.5	-1.63926
3	0	1437.5	-1.64132
3	0	1440.5	-1.6366
3	0	1443.5	-1.65317
3	0	1446.5	-1.64554
3	0	1449.5	-1.64257
3	0	1452.5	-1.6388
3	0	1455.5	-1.6361
3	0	1458.5	-1.6354
3	0	1461.5	-1.65106
3	0	1464.5	-1.63438
3	0	1467.5	-1.62797
3	0	1470.5	-1.6375
3	0	1473.5	-1.63268
3	0	1476.5	-1.6282
3	0	1479.5	-1.6306
3	0	1482.5	-1.6162
3	0	1485.5	-1.60811
3	0	1488.5	-1.62508
3	0	1491.5	-1.63262
3	0	1494.5	-1.62677
3	0	1497.5	-1.61931
3	0	1500.5	-1.62442
3	0	1503.5	-1.63717
3	0	1506.5	-1.62443
3	0	1509.5	-1.61967
3	0	1512.5	-1.61849
3	0	1515.5	-1.61657
3	0	1518.5	-1.62832
3	0	1521.5	-1.62263
3	0	1524.5	-1.61834
3	0	1527.5	-1.61445
3	0	1530.5	-1.62822
3	0	1533.5	-1.62512
3	0	1536.5	-1.64059
3	0	1539.5	-1.63031
3	0	1542.5	-1.6293
3	0	1545.5	-1.62402
3	0	1548.5	-1.62424
3	0	1551.5	-1.64234
3	0	1554.5	-1.64094
3	0	1557.5	-1.6403
3	0	1560.5	-1.64462
3	0	1563.5	-1.65254
3	0	1566.5	-1.64864
3	0	1569.5	-1.64383
3	0	1572.5	-1.64251
3	0	1575.5	-1.65019
3	0	1578.5	-1.64254
3	0	1581.5	-1.65646
3	0	1584.5	-1.65582
3	0	1587.5	-1.64691
3	0	1590.5	-1.65162
3	0	1593.5	-1.64791
3	0	1596.5	-1.63693
3	0	1599.5	-1.62545
3	0	1602.5	-1.63011
3	0	1605.5	-1.63574
3	0	1608.5	-1.62982
3	0	1611.5	-1.63388
3	0	1614.5	-1.6246
3	0	1617.5	-1.63094
3	0	1620.5	-1.60763
3	0	1623.5	-1.62449
3	0	1626.5	-1.61672
3	0	1629.5	-1.61728
3	0	1632.5	-1.61299
3	0	1635.5	-1.61619
3	0	1638.5	-1.61324
3	0	1641.5	-1.62179
3	0	1644.5	-1.61339
3	0	1647.5	-1.61587
3	0	1650.5	-1.61602
3	0	1653.5	-1.6214
3	0	1656.5	-1.61356
3	0	1659.5	-1.62662
3	0	1662.5	-1.62045
3	0	1665.5	-1.62921
3	0	1668.5	-1.61638
3	0	1671.5	-1.63131
3	0	1674.5	-1.62863
3	0	1677.5	-1.61848
3	0	1680.5	-1.63189
3	0	1683.5	-1.62932
3	0	1686.5	-1.63052
3	0	1689.5	-1.64409
3	0	1692.5	-1.63967
3	0	1695.5	-1.64108
3	0	1698.5	-1.6322
3	0	1701.5	-1.62754
3	0	1704.5	-1.64773
3	0	1707.5	-1.63108
3	0	1710.5	-1.63594
3	0	1713.5	-1.63014
3	0	1716.5	-1.64014
3	0	1719.5	-1.62188
3	0	1722.5	-1.62455
3	0	1725.5	-1.60529
3	0	1728.5	-1.62528
3	0	1731.5	-1.62272
3	0	1734.5	-1.60276
3	0	1737.5	-1.62159
3	0	1740.5	-1.61829
3	0	1743.5	-1.61176
3	0	1746.5	-1.61947
3	0	1749.5	-1.61254
3	0	1752.5	-1.60649
3	0	1755.5	-1.6202
3	0	1758.5	-1.6255
3	0	1761.5	-1.61076
3	0	1764.5	-1.62095
3	0	1767.5	-1.61206
3	0	1770.5	-1.60843
3	0	1773.5	-1.60579
3	0	1776.5	-1.61688
3	0	1779.5	-1.62574
3	0	1782.5	-1.60921
3	0	1785.5	-1.63471
3	0	1788.5	-1.63094
3	0	1791.5	-1.62254
3	0	1794.5	-1.63495
3	0	1797.5	-1.63333
3	0	1800.5	-1.63891
3	0	1803.5	-1.64803
3	0	1806.5	-1.63694
3	0	1809.5	-1.63039
3	0	1812.5	-1.63301
3	0	1815.5	-1.64947
3	0	1818.5	-1.63806
3	0	1821.5	-1.63924
3	0	1824.5	-1.64114
3	0	1827.5	-1.63306
3	0	1830.5	-1.63276
3	0	1833.5	-1.63682
3	0	1836.5	-1.62433
3	0	1839.5	-1.61403
3	0	1842.5	-1.629
3	0	1845.5	-1.62538
3	0	1848.5	-1.61523
3	0	1851.5	-1.61955
3	0	1854.5	-1.62213
3	0	1857.5	-1.62232
3	0	1860.5	-1.6247
3	0	1863.5	-1.62303
3	0	1866.5	-1.62913
3	0	1869.5	-1.60871
3	0	1872.5	-1.61672
3	0	1875.5	-1.61024
3	0	1878.5	-1.60604
3	0	1881.5	-1.61134
3	0	1884.5	-1.60979
3	0	1887.5	-1.60402
3	0	1890.5	-1.60431
3	0	1893.5	-1.60316
3	0	1896.5	-1.59023
3	0	1899.5	-1.61082
3	0	1902.5	-1.62976
3	0	1905.5	-1.61868
3	0	1908.5	-1.62078
3	0	1911.5	-1.60932
3	0	1914.5	-1.61451
3	0	1917.5	-1.63423
3	0	1920.5	-1.62875
3	0	1923.5	-1.63236
3	0	1926.5	-1.6241
3	0	1929.5	-1.62626
3	0	1932.5	-1.6399
3	0	1935.5	-1.6352
3	0	1938.5	-1.64228
3	0	1941.5	-1.63403
3	0	1944.5	-1.62918
3	0	1947.5	-1.64317
3	0	1950.5	-1.63878
3	0	1953.5	-1.62854
3	0	1956.5	-1.63579
3	0	1959.5	-1.62737
3	0	1962.5	-1.63038
3	0	1965.5	-1.62188
3	0	1968.5	-1.61973
3	0	1971.5	-1.60974
3	0	1974.5	-1.62861
3	0	1977.5	-1.62528
3	0	1980.5	-1.61457
3	0	1983.5	-1.62181
3	0	1986.5	-1.62139
3	0	1989.5	-1.62192
3	0	1992.5	-1.62173
3	0	1995.5	-1.61278
3	0	1998.5	-1.62303
3	0	2001.5	-1.61017
3	0	2004.5	-1.6284
3	0	2007.5	-1.61326
3	0	2010.5	-1.62649
3	0	2013.5	-1.61821
3	0	2016.5	-1.60472
3	0	2019.5	-1.61091
3	0	2022.5	-1.61437
3	0	2025.5	-1.62117
3	0	2028.5	-1.62043
3	0	2031.5	-1.61214
3	0	2034.5	-1.62025
3	0	2037.5	-1.60917
3	0	2040.5	-1.62986
3	0	2043.5	-1.62814
3	0	2046.5	-1.62868
3	0	2049.5	-1.62808
3	0	2052.5	-1.63052
3	0	2055.5	-1.62838
3	0	2058.5	-1.63147
3	0	2061.5	-1.62342
3	0	2064.5	-1.63653
3	0	2067.5	-1.62966
3	0	2070.5	-1.637
3	0	2073.5	-1.64404
3	0	2076.5	-1.64674
3	0	2079.5	-1.63444
3	0	2082.5	-1.6408
3	0	2085.5	-1.63514
3	0	2088.5	-1.63314
3	0	2091.5	-1.6444
3	0	2094.5	-1.62818
3	0	2097.5	-1.61584
3	0	2100.5	-1.61397
3	0	2103.5	-1.62532
3	0	2106.5	-1.62275
3	0	2109.5	-1.6164
3	0	2112.5	-1.61897
3	0	2115.5	-1.61455
3	0	2118.5	-1.62168
3	0	2121.5	-1.61628
3	0	2124.5	-1.61138
3	0	2127.5	-1.60899
3	0	2130.5	-1.6039
3	0	2133.5	-1.60893
3	0	2136.5	-1.60842
3	0	2139.5	-1.60511
3	0	2142.5	-1.60871
3	0	2145.5	-1.60071
3	0	2148.5	-1.61637
3	0	2151.5	-1.61949
3	0	2154.5	-1.61845
3	0	2157.5	-1.61813
3	0	2160.5	-1.61957
3	0	2163.5	-1.6169
3	0	2166.5	-1.63001
3	0	2169.5	-1.62569
3	0	2172.5	-1.62653
3	0	2175.5	-1.63456
3	0	2178.5	-1.63692
3	0	2181.5	-1.63289
3	0	2184.5	-1.64319
3	0	2187.5	-1.63688
3	0	2190.5	-1.62583
3	0	2193.5	-1.63138
3	0	2196.5	-1.63909
3	0	2199.5	-1.6296
3	0	2202.5	-1.63204
3	0	2205.5	-1.63003
3	0	2208.5	-1.63192
3	0	2211.5	-1.61961
3	0	2214.5	-1.60991
3	0	2217.5	-1.62035
3	0	2220.5	-1.61036
3	0	2223.5	-1.62119
3	0	2226.5	-1.62725
3	0	2229.5	-1.62133
3	0	2232.5	-1.62195
3	0	2235.5	-1.61567
3	0	2238.5	-1.61494
3	0	2241.5	-1.60094
3	0	2244.5	-1.62394
3	0	2247.5	-1.61336
3	0	2250.5	-1.60883
3	0	2253.5	-1.60185
3	0	2256.5	-1.60026
3	0	2259.5	-1.60901
3	0	2262.5	-1.6004
3	0	2265.5	-1.60205
3	0	2268.5	-1.61165
3	0	2271.5	-1.61189
3	0	2274.5	-1.60078
3	0	2277.5	-1.61654
3	0	2280.5	-1.61587
3	0	2283.5	-1.61849
3	0	2286.5	-1.63082
3	0	2289.5	-1.61241
3	0	2292.5	-1.61822
3	0	2295.5	-1.62115
3	0	2298.5	-1.61563
3	0	2301.5	-1.62188
3	0	2304.5	-1.63736
3	0	2307.5	-1.63695
3	0	2310.5	-1.63794
3	0	2313.5	-1.63751
3	0	2316.5	-1.63808
3	0	2319.5	-1.63212
3	0	2322.5	-1.64326
3	0	2325.5	-1.63761
3	0	2328.5	-1.6287
3	0	2331.5	-1.62737
3	0	2334.5	-1.62833
3	0	2337.5	-1.62739
3	0	2340.5	-1.62086
3	0	2343.5	-1.61794
3	0	2346.5	-1.61682
3	0	2349.5	-1.61391
3	0	2352.5	-1.61855
3	0	2355.5	-1.62458
3	0	2358.5	-1.61865
3	0	2361.5	-1.62479
3	0	2364.5	-1.61144
3	0	2367.5	-1.61627
3	0	2370.5	-1.61476
3	0	2373.5	-1.61101
3	0	2376.5	-1.61856
3	0	2379.5	-1.6071
3	0	2382.5	-1.61292
3	0	2385.5	-1.5975
3	0	2388.5	-1.60643
3	0	2391.5	-1.60783
3	0	2394.5	-1.60811
3	0	2397.5	-1.60731
3	0	2400.5	-1.62311
3	0	2403.5	-1.62317
3	0	2406.5	-1.62495
3	0	2409.5	-1.61941
3	0	2412.5	-1.6163
3	0	2415.5	-1.61808
3	0	2418.5	-1.62069
3	0	2421.5	-1.61688
3	0	2424.5	-1.63004
3	0	2427.5	-1.62576
3	0	2430.5	-1.63213
3	0	2433.5	-1.62691
3	0	2436.5	-1.6308
3	0	2439.5	-1.6253
3	0	2442.5	-1.61796
3	0	2445.5	-1.61989
3	0	2448.5	-1.63049
3	0	2451.5	-1.62989
3	0	2454.5	-1.62473
3	0	2457.5	-1.62238
3	0	2460.5	-1.62394
3	0	2463.5	-1.62356
3	0	2466.5	-1.61749
3	0	2469.5	-1.61139
3	0	2472.5	-1.60179
3	0	2475.5	-1.60424
3	0	2478.5	-1.61883
3	0	2481.5	-1.61085
3	0	2484.5	-1.61791
3	0	2487.5	-1.62229
3	0	2490.5	-1.619
3	0	2493.5	-1.60801
3	0	2496.5	-1.60269
3	0	2499.5	-1.60852
3	0	2502.5	-1.61071
3	0	2505.5	-1.60902
3	0	2508.5	-1.59895
3	0	2511.5	-1.6027
3	0	2514.5	-1.60986
3	0	2517.5	-1.60873
3	0	2520.5	-1.60444
3	0	2523.5	-1.60142
3	0	2526.5	-1.61037
3	0	2529.5	-1.60703
3	0	2532.5	-1.61113
3	0	2535.5	-1.61257
3	0	2538.5	-1.60747
3	0	2541.5	-1.62259
3	0	2544.5	-1.61828
3	0	2547.5	-1.6203
3	0	2550.5	-1.6359
3	0	2553.5	-1.61317
3	0	2556.5	-1.62338
3	0	2559.5	-1.63768
3	0	2562.5	-1.63175
3	0	2565.5	-1.62763
3	0	2568.5	-1.62722
3	0	2571.5	-1.62925
3	0	2574.5	-1.62231
3	0	2577.5	-1.62401
3	0	2580.5	-1.62544
3	0	2583.5	-1.61978
3	0	2586.5	-1.61943
3	0	2589.5	-1.61861
3	0	2592.5	-1.6286
3	0	2595.5	-1.61858
3	0	2598.5	-1.61927
3	0	2601.5	-1.61831
3	0	2604.5	-1.6186
3	0	2607.5	-1.60976
3	0	2610.5	-1.61683
3	0	2613.5	-1.60554
3	0	2616.5	-1.60821
3	0	2619.5	-1.61038
3	0	2622.5	-1.60415
3	0	2625.5	-1.6057
3	0	2628.5	-1.59832
3	0	2631.5	-1.60501
3	0	2634.5	-1.60702
3	0	2637.5	-1.59869
3	0	2640.5	-1.59566
3	0	2643.5	-1.60806
3	0	2646.5	-1.61157
3	0	2649.5	-1.59683
3	0	2652.5	-1.59318
3	0	2655.5	-1.61664
3	0	2658.5	-1.60748
3	0	2661.5	-1.59921
3	0	2664.5	-1.59771
3	0	2667.5	-1.61271
3	0	2670.5	-1.60684
3	0	2673.5	-1.62711
3	0	2676.5	-1.61231
3	0	2679.5	-1.61893
3	0	2682.5	-1.61471
3	0	2685.5	-1.62286
3	0	2688.5	-1.62543
3	0	2691.5	-1.63036
3	0	2694.5	-1.62628
3	0	2697.5	-1.63033
3	0	2700.5	-1.62743
3	0	2703.5	-1.62234
3	0	2706.5	-1.61561
3	0	2709.5	-1.62503
3	0	2712.5	-1.62379
3	0	2715.5	-1.61578
3	0	2718.5	-1.61477
3	0	2721.5	-1.60857
3	0	2724.5	-1.60967
3	0	2727.5	-1.61767
3	0	2730.5	-1.60573
3	0	2733.5	-1.61114
3	0	2736.5	-1.60775
3	0	2739.5	-1.59942
3	0	2742.5	-1.60051
3	0	2745.5	-1.5911
3	0	2748.5	-1.59901
3	0	2751.5	-1.59205
3	0	2754.5	-1.60309
3	0	2757.5	-1.59595
3	0	2760.5	-1.59906
3	0	2763.5	-1.59149
3	0	2766.5	-1.60385
3	0	2769.5	-1.60466
3	0	2772.5	-1.60064
3	0	2775.5	-1.6071
3	0	2778.5	-1.60719
3	0	2781.5	-1.60776
3	0	2784.5	-1.61216
3	0	2787.5	-1.61438
3	0	2790.5	-1.61269
3	0	2793.5	-1.61409
3	0	2796.5	-1.61757
3	0	2799.5	-1.62065
3	0	2802.5	-1.62374
3	0	2805.5	-1.6255
3	0	2808.5	-1.62685
3	0	2811.5	-1.61505
3	0	2814.5	-1.61791
3	0	2817.5	-1.61961
3	0	2820.5	-1.61758
3	0	2823.5	-1.61417
3	0	2826.5	-1.60739
3	0	2829.5	-1.62365
3	0	2832.5	-1.6168
3	0	2835.5	-1.62891
3	0	2838.5	-1.6254
3	0	2841.5	-1.61312
3	0	2844.5	-1.62399
3	0	2847.5	-1.61362
3	0	2850.5	-1.61106
3	0	2853.5	-1.61071
3	0	2856.5	-1.61251
3	0	2859.5	-1.60295
3	0	2862.5	-1.60834
3	0	2865.5	-1.60538
3	0	2868.5	-1.60327
3	0	2871.5	-1.60969
3	0	2874.5	-1.6086
3	0	2877.5	-1.60124
3	0	2880.5	-1.61275
3	0	2883.5	-1.60342
3	0	2886.5	-1.59404
3	0	2889.5	-1.60474
3	0	2892.5	-1.61357
3	0	2895.5	-1.60662
3	0	2898.5	-1.60737
3	0	2901.5	-1.60718
3	0	2904.5	-1.60822
3	0	2907.5	-1.60236
3	0	2910.5	-1.59885
3	0	2913.5	-1.60751
3	0	2916.5	-1.60927
3	0	2919.5	-1.61793
3	0	2922.5	-1.613
3	0	2925.5	-1.61807
3	0	2928.5	-1.61526
3	0	2931.5	-1.60805
3	0	2934.5	-1.6207
3	0	2937.5	-1.62175
3	0	2940.5	-1.60867
3	0	2943.5	-1.60641
3	0	2946.5	-1.6149
3	0	2949.5	-1.61493
3	0	2952.5	-1.61498
3	0	2955.5	-1.61054
3	0	2958.5	-1.6095
3	0	2961.5	-1.60806
3	0	2964.5	-1.60938
3	0	2967.5	-1.60808
3	0	2970.5	-1.59597
3	0	2973.5	-1.60602
3	0	2976.5	-1.61059
3	0	2979.5	-1.6056
3	0	2982.5	-1.59887
3	0	2985.5	-1.61163
3	0	2988.5	-1.59953
3	0	2991.5	-1.60782
3	0	2994.5	-1.59927
3	0	2997.5	-1.60299
3	0	3000.5	-1.59083
3	0	3003.5	-1.59588
3	0	3006.5	-1.59278
3	0	3009.5	-1.59706
3	0	3012.5	-1.59697
3	0	3015.5	-1.59481
3	0	3018.5	-1.60161
3	0	3021.5	-1.60019
3	0	3024.5	-1.59703
3	0	3027.5	-1.59267
3	0	3030.5	-1.60088
3	0	3033.5	-1.60451
3	0	3036.5	-1.6033
3	0	3039.5	-1.61327
3	0	3042.5	-1.5991
3	0	3045.5	-1.61055
3	0	3048.5	-1.60506
3	0	3051.5	-1.61285
3	0	3054.5	-1.60687
3	0	3057.5	-1.60812
3	0	3060.5	-1.61934
3	0	3063.5	-1.62412
3	0	3066.5	-1.61762
3	0	3069.5	-1.61432
3	0	3072.5	-1.61675
3	0	3075.5	-1.61767
3	0	3078.5	-1.63003
3	0	3081.5	-1.61827
3	0	3084.5	-1.62097
3	0	3087.5	-1.61561
3	0	3090.5	-1.60139
3	0	3093.5	-1.60323
3	0	3096.5	-1.60704
3	0	3099.5	-1.60864
3	0	3102.5	-1.61031
3	0	3105.5	-1.60541
3	0	3108.5	-1.59876
3	0	3111.5	-1.60138
3	0	3114.5	-1.60137
3	0	3117.5	-1.59945
3	0	3120.5	-1.60668
3	0	3123.5	-1.59986
3	0	3126.5	-1.60393
3	0	3129.5	-1.59033
3	0	3132.5	-1.59395
3	0	3135.5	-1.59107
3	0	3138.5	-1.59374
3	0	3141.5	-1.58957
3	0	3144.5	-1.59024
3	0	3147.5	-1.58953
3	0	3150.5	-1.58514
3	0	3153.5	-1.60335
3	0	3156.5	-1.60429
3	0	3159.5	-1.60062
3	0	3162.5	-1.60482
3	0	3165.5	-1.59916
3	0	3168.5	-1.58898
3	0	3171.5	-1.60329
3	0	3174.5	-1.61586
3	0	3177.5	-1.60322
3	0	3180.5	-1.6098
3	0	3183.5	-1.61623
3	0	3186.5	-1.60992
3	0	3189.5	-1.60762
3	0	3192.5	-1.60859
3	0	3195.5	-1.60405
3	0	3198.5	-1.61213
3	0	3201.5	-1.60201
3	0	3204.5	-1.58757
3	0	3207.5	-1.60317
3	0	3210.5	-1.59095
3	0	3213.5	-1.59535
3	0	3216.5	-1.5962
3	0	3219.5	-1.61489
3	0	3222.5	-1.59921
3	0	3225.5	-1.60722
3	0	3228.5	-1.60454
3	0	3231.5	-1.60041
3	0	3234.5	-1.60269
3	0	3237.5	-1.59431
3	0	3240.5	-1.59298
3	0	3243.5	-1.59105
3	0	3246.5	-1.59457
3	0	3249.5	-1.57711
3	0	3252.5	-1.59436
3	0	3255.5	-1.6005
3	0	3258.5	-1.59278
3	0	3261.5	-1.59851
3	0	3264.5	-1.58017
3	0	3267.5	-1.59127
3	0	3270.5	-1.60053
3	0	3273.5	-1.60382
3	0	3276.5	-1.60003
3	0	3279.5	-1.60126
3	0	3282.5	-1.59793
3	0	3285.5	-1.59132
3	0	3288.5	-1.6136
3	0	3291.5	-1.60667
3	0	3294.5	-1.60808
3	0	3297.5	-1.60769
3	0	3300.5	-1.61375
3	0	3303.5	-1.6209
3	0	3306.5	-1.60433
3	0	3309.5	-1.61343
3	0	3312.5	-1.60499
3	0	3315.5	-1.61117
3	0	3318.5	-1.61305
3	0	3321.5	-1.62085
3	0	3324.5	-1.60393
3	0	3327.5	-1.61119
3	0	3330.5	-1.61181
3	0	3333.5	-1.61334
3	0	3336.5	-1.60552
3	0	3339.5	-1.60128
3	0	3342.5	-1.60398
3	0	3345.5	-1.59877
3	0	3348.5	-1.59472
3	0	3351.5	-1.60064
3	0	3354.5	-1.59645
3	0	3357.5	-1.60153
3	0	3360.5	-1.59544
3	0	3363.5	-1.60102
3	0	3366.5	-1.59085
3	0	3369.5	-1.57865
3	0	3372.5	-1.59019
3	0	3375.5	-1.59346
3	0	3378.5	-1.58711
3	0	3381.5	-1.58916
3	0	3384.5	-1.5906
3	0	3387.5	-1.59126
3	0	3390.5	-1.59179
3	0	3393.5	-1.58355
3	0	3396.5	-1.59895
3	0	3399.5	-1.59901
3	0	3402.5	-1.60774
3	0	3405.5	-1.60537
3	0	3408.5	-1.61001
3	0	3411.5	-1.61096
3	0	3414.5	-1.60963
3	0	3417.5	-1.61283
3	0	3420.5	-1.61684
3	0	3423.5	-1.59851
3	0	3426.5	-1.60427
3	0	3429.5	-1.6088
3	0	3432.5	-1.61437
3	0	3435.5	-1.60537
3	0	3438.5	-1.62053
3	0	3441.5	-1.62357
3	0	3444.5	-1.61397
3	0	3447.5	-1.61635
3	0	3450.5	-1.6189
3	0	3453.5	-1.61106
3	0	3456.5	-1.60936
3	0	3459.5	-1.61067
3	0	3462.5	-1.60411
3	0	3465.5	-1.60531
3	0	3468.5	-1.60203
3	0	3471.5	-1.59311
3	0	3474.5	-1.59828
3	0	3477.5	-1.59655
3	0	3480.5	-1.6003
3	0	3483.5	-1.58896
3	0	3486.5	-1.58691
3	0	3489.5	-1.58772
3	0	3492.5	-1.59124
3	0	3495.5	-1.57811
3	0	3498.5	-1.59023
3	0	3501.5	-1.59227
3	0	3504.5	-1.59061
3	0	3507.5	-1.58125
3	0	3510.5	-1.58758
3	0	3513.5	-1.59369
3	0	3516.5	-1.58807
3	0	3519.5	-1.59017
3	0	3522.5	-1.5881
3	0	3525.5	-1.60178
3	0	3528.5	-1.59837
3	0	3531.5	-1.59307
3	0	3534.5	-1.5837
3	0	3537.5	-1.6
3	0	3540.5	-1.59202
3	0	3543.5	-1.59899
3	0	3546.5	-1.60268
3	0	3549.5	-1.60422
3	0	3552.5	-1.60529
3	0	3555.5	-1.60495
3	0	3558.5	-1.60002
3	0	3561.5	-1.60292
3	0	3564.5	-1.60965
3	0	3567.5	-1.60935
3	0	3570.5	-1.61041
3	0	3573.5	-1.61478
3	0	3576.5	-1.60627
3	0	3579.5	-1.60887
3	0	3582.5	-1.5996
3	0	3585.5	-1.59155
3	0	3588.5	-1.59535
3	0	3591.5	-1.60883
3	0	3594.5	-1.59834
3	0	3597.5	-1.59425
3	0	3600.5	-1.59779
3	0	3603.5	-1.59876
3	0	3606.5	-1.58415
3	0	3609.5	-1.58227
3	0	3612.5	-1.57553
3	0	3615.5	-1.59409
3	0	3618.5	-1.59046
3	0	3621.5	-1.58483
3	0	3624.5	-1.58493
3	0	3627.5	-1.59142
3	0	3630.5	-1.58549
3	0	3633.5	-1.5844
3	0	3636.5	-1.57979
3	0	3639.5	-1.59406
3	0	3642.5	-1.58536
3	0	3645.5	-1.58917
3	0	3648.5	-1.59107
3	0	3651.5	-1.59275
3	0	3654.5	-1.59307
3	0	3657.5	-1.5953
3	0	3660.5	-1.58827
3	0	3663.5	-1.5887
3	0	3666.5	-1.58451
3	0	3669.5	-1.58725
3	0	3672.5	-1.60348
3	0	3675.5	-1.59752
3	0	3678.5	-1.60975
3	0	3681.5	-1.59268
3	0	3684.5	-1.59777
3	0	3687.5	-1.59521
3	0	3690.5	-1.59711
3	0	3693.5	-1.60198
3	0	3696.5	-1.60081
3	0	3699.5	-1.6017
3	0	3702.5	-1.60927
3	0	3705.5	-1.60301
3	0	3708.5	-1.59428
3	0	3711.5	-1.59493
3	0	3714.5	-1.59046
3	0	3717.5	-1.58633
3	0	3720.5	-1.59346
3	0	3723.5	-1.03257
3	0	3726.5	-1.02319
3	0	3729.5	-1.01508
3	0	3732.5	-1.00876
3	0	3735.5	-1.00341
3	0	3738.5	-0.999065
3	0	3741.5	-0.995545
3	0	3744.5	-0.992725
3	0	3747.5	-0.990467
3	0	3750.5	-0.98861
3	0	3753.5	-0.987102
3	0	3756.5	-0.985842
3	0	3759.5	-0.984774
3	0	3762.5	-0.983942
3	0	3765.5	-0.983242
3	0	3768.5	-0.98255
3	0	3771.5	-0.981977
3	0	3774.5	-0.981463
3	0	3777.5	-0.980967
3	0	3780.5	-0.980492
3	0	3783.5	-0.980084
3	0	3786.5	-0.979679
3	0	3789.5	-0.979244
3	0	3792.5	-0.978919
3	0	3795.5	-0.978593
3	0	3798.5	-0.978296
3	0	3801.5	-0.97801
3	0	3804.5	-0.977692
3	0	3807.5	-0.977062
3	0	3810.5	-0.976605
3	0	3813.5	-0.976273
3	0	3816.5	-0.97602
3	0	3819.5	-0.975782
3	0	3821.34	-0.975642