File: TS-82-25-02-30-100_2024-07-23_clean_NaOH_04_LSV_C01.txt
mode	ox/red	error	control changes	time/s	control/V	Ewe/V	<I>/mA	(Q-Qo)/C	I Range	<Ece>/V	P/W	Ewe-Ece/V
2	0	0	1	123.591	-1.2846	-1.27856	-196.886	-0.00700508	37	0.656263	0.25173	-1.93482
2	0	0	1	123.775	-1.28277	-1.28433	-194.917	-0.0427674	37	0.654556	0.250338	-1.93889
2	0	0	1	124.108	-1.27943	-1.283	-190.802	-0.106984	37	0.652805	0.2448	-1.93581
2	0	0	1	124.441	-1.2761	-1.2773	-186.729	-0.169827	37	0.651675	0.23851	-1.92898
2	0	0	1	124.775	-1.27277	-1.27202	-182.673	-0.231305	37	0.650411	0.232364	-1.92244
2	0	0	1	125.108	-1.26943	-1.27293	-178.62	-0.29143	37	0.648269	0.22737	-1.9212
2	0	0	1	125.441	-1.2661	-1.26495	-174.707	-0.350241	37	0.646898	0.220996	-1.91185
2	0	0	1	125.775	-1.26276	-1.26356	-170.866	-0.407758	37	0.64484	0.215899	-1.9084
2	0	0	1	126.108	-1.25943	-1.26491	-167.106	-0.464009	37	0.643714	0.211374	-1.90863
2	0	0	1	126.442	-1.2561	-1.2542	-163.323	-0.519006	37	0.642783	0.20484	-1.89699
2	0	0	1	126.775	-1.25276	-1.25301	-159.591	-0.572749	37	0.640721	0.199969	-1.89373
2	0	0	1	127.108	-1.24943	-1.25476	-155.98	-0.625251	37	0.63934	0.195718	-1.8941
2	0	0	1	127.442	-1.2461	-1.24654	-152.387	-0.676554	37	0.63742	0.189956	-1.88396
2	0	0	1	127.775	-1.24276	-1.24257	-148.85	-0.726683	37	0.636791	0.184957	-1.87937
2	0	0	1	128.108	-1.23943	-1.24261	-145.284	-0.775632	37	0.634101	0.180531	-1.87671
2	0	0	1	128.442	-1.23609	-1.23505	-141.867	-0.823421	37	0.633747	0.175213	-1.8688
2	0	0	1	128.775	-1.23276	-1.23438	-138.538	-0.870083	37	0.631723	0.171008	-1.8661
2	0	0	1	129.109	-1.22943	-1.22877	-135.154	-0.915626	37	0.630304	0.166073	-1.85907
2	0	0	1	129.442	-1.22609	-1.22456	-131.733	-0.960026	37	0.628803	0.161315	-1.85337
2	0	0	1	129.775	-1.22276	-1.22428	-128.466	-1.00331	37	0.626937	0.157279	-1.85122
2	0	0	1	130.109	-1.21943	-1.21879	-125.285	-1.04554	37	0.625637	0.152696	-1.84442
2	0	0	1	130.442	-1.21609	-1.21717	-122.047	-1.0867	37	0.624674	0.148552	-1.84184
2	0	0	1	130.775	-1.21276	-1.21199	-119.05	-1.12682	37	0.622626	0.144287	-1.83461
2	0	0	1	131.109	-1.20942	-1.20784	-115.896	-1.16592	37	0.621392	0.139984	-1.82923
2	0	0	1	131.442	-1.20609	-1.20594	-112.896	-1.20399	37	0.620224	0.136147	-1.82617
2	0	0	1	131.775	-1.20276	-1.20217	-109.841	-1.24104	37	0.61801	0.132047	-1.82018
2	0	0	1	132.109	-1.19942	-1.1999	-106.825	-1.27709	37	0.616936	0.128179	-1.81684
2	0	0	1	132.442	-1.19609	-1.19985	-103.84	-1.31214	37	0.615438	0.124592	-1.81529
2	0	0	1	132.776	-1.19276	-1.19551	-100.844	-1.34619	37	0.61372	0.12056	-1.80923
2	0	0	1	133.109	-1.18942	-1.19079	-97.9291	-1.37926	37	0.612555	0.116613	-1.80335
2	0	0	1	133.442	-1.18609	-1.18529	-95.2168	-1.4114	37	0.610825	0.11286	-1.79612
2	0	0	1	133.776	-1.18275	-1.18256	-92.3983	-1.44261	37	0.609374	0.109266	-1.79193
2	0	0	1	134.109	-1.17942	-1.17883	-89.6419	-1.47288	37	0.608294	0.105673	-1.78713
2	0	0	1	134.442	-1.17609	-1.17714	-86.8504	-1.50223	37	0.606595	0.102235	-1.78373
2	0	0	1	134.776	-1.17275	-1.17256	-84.1546	-1.53068	37	0.604713	0.0986761	-1.77727
2	0	0	1	135.109	-1.16942	-1.17278	-81.4568	-1.55823	37	0.603811	0.095531	-1.77659
2	0	0	1	135.443	-1.16609	-1.16518	-78.7812	-1.58488	37	0.601925	0.0917946	-1.76711
2	0	0	1	135.776	-1.16275	-1.1657	-76.1586	-1.61065	37	0.600616	0.0887778	-1.76631
2	0	0	1	136.109	-1.15942	-1.1581	-73.5272	-1.63555	37	0.599026	0.0851516	-1.75712
2	0	0	1	136.443	-1.15609	-1.1543	-70.9639	-1.65958	37	0.597537	0.0819136	-1.75184
2	0	0	1	136.776	-1.15275	-1.15503	-68.4508	-1.68276	37	0.595613	0.0790626	-1.75064
2	0	0	1	137.109	-1.14942	-1.14802	-65.9327	-1.7051	37	0.594016	0.0756923	-1.74204
2	0	0	1	137.443	-1.14608	-1.14747	-63.5361	-1.72662	37	0.593245	0.0729056	-1.74071
2	0	0	1	137.776	-1.14275	-1.14399	-61.0947	-1.74734	37	0.5914	0.0698915	-1.73539
2	0	0	1	138.11	-1.13942	-1.1389	-58.7399	-1.76725	37	0.58966	0.0668991	-1.72856
2	0	0	1	138.443	-1.13608	-1.13546	-56.3968	-1.78639	37	0.588172	0.0640364	-1.72363
2	0	0	1	138.776	-1.13275	-1.13374	-54.116	-1.80475	37	0.586823	0.0613535	-1.72057
2	0	0	1	139.11	-1.12942	-1.13038	-51.8104	-1.82235	37	0.584672	0.0585657	-1.71506
2	0	0	1	139.443	-1.12608	-1.12726	-49.5788	-1.83919	37	0.582962	0.055888	-1.71022
2	0	0	1	139.776	-1.12275	-1.12578	-47.3227	-1.85529	37	0.581009	0.0532748	-1.70679
2	0	0	1	140.126	-1.11925	-1.12071	-45.0724	-1.87141	37	0.579404	0.0505131	-1.70011
2	0	0	1	140.476	-1.11575	-1.11432	-42.9803	-1.88679	38	0.578289	0.0478939	-1.69261
2	0	0	1	140.81	-1.11241	-1.11422	-40.8348	-1.90071	38	0.576208	0.045499	-1.69043
2	0	0	1	141.143	-1.10908	-1.10887	-38.8206	-1.91393	38	0.573991	0.043047	-1.68286
2	0	0	1	141.477	-1.10575	-1.10674	-36.8235	-1.92649	38	0.573036	0.0407539	-1.67977
2	0	0	1	141.81	-1.10241	-1.10163	-34.9039	-1.93839	38	0.57085	0.0384513	-1.67248
2	0	0	1	142.143	-1.09908	-1.09902	-33.1552	-1.94969	38	0.569369	0.0364383	-1.66839
2	0	0	1	142.477	-1.09574	-1.09453	-31.2734	-1.96037	38	0.567953	0.0342296	-1.66248
2	0	0	1	142.81	-1.09241	-1.09052	-29.5116	-1.97045	38	0.565937	0.0321831	-1.65646
2	0	0	1	143.143	-1.08908	-1.08891	-27.8017	-1.97994	38	0.56435	0.0302737	-1.65326
2	0	0	1	143.477	-1.08574	-1.08787	-26.0912	-1.98887	38	0.562475	0.0283837	-1.65034
2	0	0	1	143.81	-1.08241	-1.07831	-24.4796	-1.99725	38	0.560988	0.0263965	-1.63929
2	0	0	1	144.144	-1.07908	-1.08014	-22.9461	-2.0051	38	0.55886	0.024785	-1.639
2	0	0	1	144.477	-1.07574	-1.07473	-21.4046	-2.01244	38	0.556868	0.0230043	-1.6316
2	0	0	1	144.81	-1.07241	-1.07521	-19.9258	-2.01927	38	0.555297	0.0214244	-1.63051
2	0	0	1	145.144	-1.06908	-1.06998	-18.5225	-2.02563	38	0.553546	0.0198187	-1.62353
2	0	0	1	145.477	-1.06574	-1.06366	-17.0338	-2.0315	38	0.550885	0.0181182	-1.61455
2	0	0	1	145.81	-1.06241	-1.06241	-15.5999	-2.03688	38	0.548894	0.0165735	-1.6113
2	0	0	1	146.144	-1.05907	-1.06125	-14.1283	-2.04178	38	0.546753	0.0149937	-1.608
2	0	0	1	146.477	-1.05574	-1.05719	-12.6728	-2.04618	38	0.544778	0.0133975	-1.60197
2	0	0	1	146.811	-1.05241	-1.05917	-11.1306	-2.05009	38	0.54197	0.0117892	-1.60114
2	0	0	1	147.144	-1.04907	-1.04653	-9.61566	-2.05349	38	0.538456	0.0100631	-1.58499
2	0	0	1	147.477	-1.04574	-1.04586	-8.06404	-2.05638	38	0.53612	0.00843384	-1.58198
2	0	0	1	147.811	-1.04241	-1.03919	-6.50566	-2.05874	38	0.531302	0.00676064	-1.5705
2	0	0	1	148.161	-1.03891	-1.03422	-4.73447	-2.06064	38	0.526126	0.00489649	-1.56035
2	0	0	1	148.511	-1.0354	-1.03989	-2.85148	-2.06192	39	0.519064	0.00296522	-1.55895
2	0	0	1	148.844	-1.03207	-1.03129	-0.84298	-2.06247	39	0.509872	0.00086936	-1.54117
2	0	0	1	149.177	-1.02874	-1.03184	1.32108	-2.06232	39	0.494509	-0.00136315	-1.52635
2	1	0	1	149.511	-1.0254	-1.02538	3.65244	-2.06142	39	0.471021	-0.00374512	-1.4964
2	1	0	1	149.844	-1.02207	-1.02369	6.03705	-2.05974	39	0.441259	-0.00618005	-1.46495
2	1	0	1	150.178	-1.01874	-1.01837	8.1556	-2.0573	39	0.406668	-0.00830543	-1.42504
2	1	0	1	150.511	-1.0154	-1.01539	9.50491	-2.05428	39	0.375647	-0.00965118	-1.39104
2	1	0	1	150.844	-1.01207	-1.01102	9.64739	-2.05103	39	0.35464	-0.00975374	-1.36566
2	1	0	1	151.178	-1.00873	-1.00876	8.85045	-2.0479	39	0.34097	-0.00892802	-1.34973
2	1	0	1	151.511	-1.0054	-1.00713	7.82769	-2.04507	39	0.332758	-0.00788347	-1.33988
2	1	0	1	151.844	-1.00207	-1.00609	7.01522	-2.04255	39	0.326608	-0.00705792	-1.3327
2	1	0	1	152.178	-0.998735	-0.999062	6.56572	-2.04024	39	0.321317	-0.00655956	-1.32038
2	1	0	1	152.511	-0.995401	-0.996567	6.35807	-2.03803	39	0.315495	-0.00633625	-1.31206
2	1	0	1	152.845	-0.992067	-0.992439	6.31059	-2.03586	39	0.309406	-0.00626287	-1.30184
2	1	0	1	153.178	-0.988733	-0.988338	6.39666	-2.03369	39	0.302948	-0.00632206	-1.29129
2	1	0	1	153.511	-0.985399	-0.985065	6.54261	-2.03147	39	0.296652	-0.0064449	-1.28172
2	1	0	1	153.845	-0.982066	-0.981364	6.77128	-2.02919	39	0.289336	-0.00664509	-1.2707
2	1	0	1	154.178	-0.978733	-0.979583	7.06255	-2.02682	39	0.283029	-0.00691836	-1.26261
2	1	0	1	154.511	-0.975399	-0.976737	7.42192	-2.02435	39	0.275396	-0.00724927	-1.25213
2	1	0	1	154.845	-0.972064	-0.971049	7.87175	-2.02173	39	0.268324	-0.00764385	-1.23937
2	1	0	1	155.178	-0.968731	-0.968364	8.40584	-2.01896	39	0.259336	-0.00813991	-1.2277
2	1	0	1	155.512	-0.965397	-0.962212	9.01124	-2.01599	39	0.24952	-0.00867073	-1.21173
2	1	0	1	155.845	-0.962063	-0.961362	9.68612	-2.0128	39	0.23943	-0.00931187	-1.20079
2	1	0	1	156.212	-0.958397	-0.960169	10.4803	-2.00901	38	0.224625	-0.0100628	-1.18479
2	1	0	1	156.545	-0.955063	-0.959559	11.2667	-2.00531	38	0.206056	-0.0108111	-1.16561
2	1	0	1	156.878	-0.951729	-0.952778	12.0603	-2.00135	38	0.161805	-0.0114908	-1.11458
2	1	0	0	157.035	-0.949895	-0.952465	12.6324	-1.99943	38	0.111631	-0.0120319	-1.0641
2	0	0	0	250.832	-1.28627	-1.28058	-205.926	-0.00733226	37	0.650822	0.263704	-1.9314
2	0	0	1	251.015	-1.28443	-1.28443	-202.734	-0.0445547	37	0.65125	0.260398	-1.93568
2	0	0	1	251.349	-1.2811	-1.28227	-198.511	-0.111365	37	0.649147	0.254545	-1.93142
2	0	0	1	251.682	-1.27777	-1.27926	-194.339	-0.176774	37	0.647763	0.248611	-1.92703
2	0	0	1	252.015	-1.27443	-1.27663	-190.227	-0.240792	37	0.646792	0.24285	-1.92342
2	0	0	1	252.349	-1.2711	-1.27116	-186.168	-0.303449	37	0.645031	0.236649	-1.91619
2	0	0	1	252.682	-1.26777	-1.26628	-182.128	-0.364777	37	0.642717	0.230625	-1.90899
2	0	0	1	253.015	-1.26443	-1.26586	-177.94	-0.424725	37	0.641288	0.225247	-1.90715
2	0	0	1	253.349	-1.2611	-1.2612	-174.05	-0.483336	37	0.639976	0.219512	-1.90118
2	0	0	1	253.682	-1.25776	-1.2585	-170.21	-0.540654	37	0.638679	0.21421	-1.89718
2	0	0	1	254.016	-1.25443	-1.25693	-166.397	-0.596696	37	0.637323	0.209148	-1.89425
2	0	0	1	254.349	-1.2511	-1.25151	-162.568	-0.651448	37	0.635935	0.203456	-1.88744
2	0	0	1	254.682	-1.24776	-1.24863	-158.913	-0.704952	37	0.634152	0.198424	-1.88278
2	0	0	1	255.016	-1.24443	-1.24576	-155.237	-0.757249	37	0.632517	0.193388	-1.87828
2	0	0	1	255.349	-1.2411	-1.24473	-151.501	-0.808319	37	0.631485	0.188577	-1.87621
2	0	0	1	255.682	-1.23776	-1.24262	-147.853	-0.858161	37	0.629306	0.183725	-1.87193
2	0	0	1	256.016	-1.23443	-1.23295	-144.235	-0.906789	37	0.628097	0.177835	-1.86105
2	0	0	1	256.349	-1.23109	-1.2348	-140.621	-0.95421	37	0.626887	0.173639	-1.86169
2	0	0	1	256.682	-1.22776	-1.22647	-137.13	-1.00043	37	0.625059	0.168185	-1.85153
2	0	0	1	257.016	-1.22443	-1.2271	-133.749	-1.04551	37	0.623278	0.164123	-1.85038
2	0	0	1	257.349	-1.22109	-1.22201	-130.372	-1.08948	37	0.622977	0.159315	-1.84499
2	0	0	1	257.683	-1.21776	-1.21725	-127	-1.13231	37	0.621324	0.15459	-1.83857
2	0	0	1	258.016	-1.21443	-1.21457	-123.659	-1.17403	37	0.619675	0.150193	-1.83425
2	0	0	1	258.349	-1.21109	-1.20959	-120.458	-1.21466	37	0.618126	0.145705	-1.82771
2	0	0	1	258.683	-1.20776	-1.2081	-117.334	-1.25424	37	0.616764	0.141751	-1.82486
2	0	0	1	259.016	-1.20442	-1.20501	-114.102	-1.29275	37	0.614419	0.137494	-1.81943
2	0	0	1	259.349	-1.20109	-1.19995	-111.014	-1.33021	37	0.613272	0.133211	-1.81323
2	0	0	1	259.683	-1.19776	-1.19882	-107.774	-1.3666	37	0.612172	0.129202	-1.811
2	0	0	1	260.016	-1.19442	-1.19411	-104.671	-1.40195	37	0.610668	0.124988	-1.80477
2	0	0	1	260.35	-1.19109	-1.19351	-101.638	-1.43627	37	0.608936	0.121306	-1.80245
2	0	0	1	260.683	-1.18776	-1.18604	-98.6799	-1.4696	37	0.607292	0.117039	-1.79333
2	0	0	1	261.016	-1.18442	-1.18684	-95.7374	-1.50193	37	0.606014	0.113625	-1.79285
2	0	0	1	261.35	-1.18109	-1.18114	-92.7741	-1.53328	37	0.604907	0.109579	-1.78605
2	0	0	1	261.683	-1.17776	-1.1779	-89.8004	-1.56364	37	0.603075	0.105776	-1.78098
2	0	0	1	262.016	-1.17442	-1.1787	-87.0297	-1.59305	37	0.601537	0.102582	-1.78024
2	0	0	1	262.35	-1.17109	-1.16913	-84.1394	-1.62152	37	0.599697	0.0983697	-1.76883
2	0	0	1	262.683	-1.16775	-1.16872	-81.344	-1.64904	37	0.598113	0.0950686	-1.76684
2	0	0	1	263.017	-1.16442	-1.16344	-78.5376	-1.67563	37	0.596845	0.0913735	-1.76028
2	0	0	1	263.35	-1.16109	-1.1659	-75.7586	-1.70128	37	0.595265	0.0883267	-1.76116
2	0	0	1	263.683	-1.15775	-1.15663	-73.0517	-1.72602	37	0.593971	0.0844937	-1.7506
2	0	0	1	264.017	-1.15442	-1.15365	-70.3503	-1.74986	37	0.592131	0.0811597	-1.74578
2	0	0	1	264.35	-1.15109	-1.15574	-67.645	-1.77279	37	0.590405	0.0781801	-1.74615
2	0	0	1	264.683	-1.14775	-1.14897	-64.9537	-1.79484	37	0.588667	0.0746296	-1.73763
2	0	0	1	265.017	-1.14442	-1.1477	-62.4384	-1.81601	37	0.587135	0.0716602	-1.73483
2	0	0	1	265.35	-1.14108	-1.14402	-59.8387	-1.83632	37	0.585773	0.0684566	-1.72979
2	0	0	1	265.684	-1.13775	-1.13697	-57.2951	-1.85578	37	0.583931	0.0651431	-1.7209
2	0	0	1	266.017	-1.13442	-1.13249	-54.8215	-1.8744	37	0.582599	0.0620846	-1.71509
2	0	0	1	266.35	-1.13108	-1.13035	-52.3237	-1.8922	37	0.580715	0.0591439	-1.71106
2	0	0	1	266.684	-1.12775	-1.13107	-49.9322	-1.90918	37	0.578996	0.0564768	-1.71006
2	0	0	1	267.017	-1.12442	-1.12353	-47.5728	-1.92537	37	0.577309	0.0534496	-1.70084
2	0	0	1	267.367	-1.12091	-1.12122	-45.0956	-1.94152	37	0.575511	0.0505619	-1.69673
2	0	0	1	267.717	-1.11741	-1.11398	-42.7695	-1.95686	38	0.573667	0.0476445	-1.68765
2	0	0	1	268.05	-1.11408	-1.11335	-40.5658	-1.97069	38	0.571834	0.045164	-1.68519
2	0	0	1	268.384	-1.11075	-1.10889	-38.3655	-1.98378	38	0.570215	0.042543	-1.6791
2	0	0	1	268.717	-1.10741	-1.10742	-36.3231	-1.99617	38	0.568254	0.0402249	-1.67567
2	0	0	1	269.051	-1.10408	-1.09996	-34.2577	-2.00787	38	0.566439	0.0376822	-1.6664
2	0	0	1	269.384	-1.10075	-1.1002	-32.2387	-2.0189	38	0.564505	0.035469	-1.66471
2	0	0	1	269.717	-1.09741	-1.09773	-30.2862	-2.02926	38	0.562711	0.0332461	-1.66044
2	0	0	1	270.051	-1.09408	-1.09111	-28.392	-2.03897	38	0.560748	0.0309788	-1.65186
2	0	0	1	270.384	-1.09075	-1.0896	-26.5337	-2.04807	38	0.558525	0.028911	-1.64812
2	0	0	1	270.717	-1.08741	-1.09014	-24.7403	-2.05655	38	0.556879	0.0269703	-1.64702
2	0	0	1	271.051	-1.08408	-1.08545	-22.9996	-2.06445	38	0.55514	0.0249648	-1.64059
2	0	0	1	271.384	-1.08074	-1.08191	-21.3068	-2.07178	38	0.553249	0.0230522	-1.63516
2	0	0	1	271.718	-1.07741	-1.08116	-19.6955	-2.07855	38	0.550722	0.021294	-1.63189
2	0	0	1	272.051	-1.07408	-1.06873	-18.0779	-2.08479	38	0.549221	0.0193204	-1.61795
2	0	0	1	272.384	-1.07074	-1.069	-16.5734	-2.09051	38	0.546559	0.017717	-1.61556
2	0	0	1	272.718	-1.06741	-1.06937	-15.0199	-2.09571	38	0.544008	0.0160618	-1.61338
2	0	0	1	273.051	-1.06408	-1.06275	-13.4916	-2.10041	38	0.542163	0.0143382	-1.60491
2	0	0	1	273.384	-1.06074	-1.06149	-11.9838	-2.10459	38	0.539221	0.0127207	-1.60071
2	0	0	1	273.718	-1.05741	-1.0558	-10.4373	-2.10827	38	0.536773	0.0110197	-1.59257
2	0	0	1	274.051	-1.05407	-1.05668	-8.94028	-2.11144	38	0.533564	0.00944703	-1.59025
2	0	0	1	274.385	-1.05074	-1.05099	-7.44671	-2.11412	38	0.530197	0.00782645	-1.58119
2	0	0	1	274.718	-1.04741	-1.05036	-6.03621	-2.11631	38	0.526023	0.00634021	-1.57639
2	0	0	1	275.068	-1.04391	-1.03794	-4.49715	-2.11808	38	0.520645	0.00466776	-1.55858
2	0	0	1	275.418	-1.04041	-1.04238	-2.91529	-2.11934	39	0.514919	0.00303884	-1.5573
2	0	0	1	275.751	-1.03707	-1.03673	-1.21348	-2.11997	39	0.506785	0.00125806	-1.54352
2	0	0	1	276.085	-1.03374	-1.03183	0.671714	-2.12	39	0.49354	-0.000693093	-1.52537
2	1	0	1	276.418	-1.0304	-1.0323	2.7498	-2.11937	39	0.475283	-0.00283863	-1.50759
2	1	0	1	276.751	-1.02707	-1.03113	5.05609	-2.11801	39	0.44873	-0.00521348	-1.47986
2	1	0	1	277.085	-1.02374	-1.02827	7.5461	-2.11584	39	0.416941	-0.00775945	-1.44521
2	1	0	1	277.435	-1.02024	-1.02403	10.1537	-2.11265	39	0.382062	-0.0103977	-1.40609
2	1	0	1	277.785	-1.01674	-1.01409	11.986	-2.10872	38	0.350633	-0.012155	-1.36473
2	1	0	1	278.118	-1.0134	-1.01565	12.3411	-2.10461	38	0.328592	-0.0125343	-1.34425
2	1	0	1	278.452	-1.01007	-1.00972	11.0466	-2.10067	38	0.315159	-0.011154	-1.32488
2	1	0	1	278.785	-1.00674	-1.00406	9.31451	-2.09725	38	0.306711	-0.0093523	-1.31077
2	1	0	1	279.118	-1.0034	-1.00263	8.01325	-2.09433	38	0.299732	-0.00803436	-1.30237
2	1	0	1	279.452	-1.00007	-1.00297	7.20399	-2.09176	38	0.295077	-0.00722541	-1.29805
2	1	0	1	279.785	-0.996733	-1.00001	6.75267	-2.08939	38	0.2914	-0.00675273	-1.29141
2	1	0	1	280.119	-0.9934	-0.994099	6.58616	-2.08713	38	0.285823	-0.00654729	-1.27992
2	1	0	1	280.452	-0.990067	-0.991	6.62359	-2.08488	38	0.281277	-0.00656398	-1.27228
2	1	0	1	280.785	-0.986734	-0.987688	6.74341	-2.08261	38	0.2761	-0.00666039	-1.26379
2	1	0	1	281.119	-0.9834	-0.982557	6.94526	-2.08028	38	0.272235	-0.00682411	-1.25479
2	1	0	1	281.452	-0.980065	-0.981401	7.21615	-2.07787	38	0.266598	-0.00708194	-1.248
2	1	0	1	281.785	-0.976732	-0.978758	7.56852	-2.07536	38	0.260275	-0.00740774	-1.23903
2	1	0	1	282.119	-0.973398	-0.974823	8.01973	-2.07271	38	0.253381	-0.00781782	-1.2282
2	1	0	1	282.452	-0.970064	-0.977329	8.54563	-2.0699	38	0.245658	-0.0083519	-1.22299
2	1	0	1	282.785	-0.966731	-0.967582	9.15949	-2.0669	38	0.236049	-0.00886256	-1.20363
2	1	0	1	283.119	-0.963398	-0.96207	9.86488	-2.06368	38	0.220606	-0.0094907	-1.18268
2	1	0	1	283.452	-0.960064	-0.962203	10.5765	-2.06022	38	0.1827	-0.0101768	-1.1449
2	1	0	1	283.786	-0.956729	-0.957835	11.3119	-2.05652	38	0.065516	-0.0108349	-1.02335
2	1	0	1	284.119	-0.953396	-0.961298	12.2663	-2.05254	38	-0.157194	-0.0117916	-0.804104
2	1	0	1	284.369	-0.950895	-0.948455	13.1262	-2.04936	38	-0.610503	-0.0124496	-0.337952
2	1	0	1	284.442	-0.949895	-0.949581	13.4001	-2.04839	38	-0.753392	-0.0127245	-0.196189
2	0	0	0	379.106	-1.27193	-1.27285	-196.295	-0.00698967	37	0.644434	0.249854	-1.91728
2	0	0	1	379.289	-1.2701	-1.27147	-194.471	-0.0426807	37	0.644249	0.247263	-1.91572
2	0	0	1	379.623	-1.26676	-1.26985	-190.318	-0.106753	37	0.642485	0.241676	-1.91234
2	0	0	1	379.956	-1.26343	-1.26573	-186.265	-0.169456	37	0.64131	0.235761	-1.90704
2	0	0	1	380.289	-1.2601	-1.26028	-182.2	-0.230786	37	0.639184	0.229622	-1.89946
2	0	0	1	380.623	-1.25676	-1.25829	-178.212	-0.290775	37	0.638282	0.224242	-1.89657
2	0	0	1	380.956	-1.25343	-1.25102	-174.244	-0.349456	37	0.636923	0.217982	-1.88794
2	0	0	1	381.29	-1.2501	-1.24993	-170.421	-0.406842	37	0.635074	0.213015	-1.885
2	0	0	1	381.623	-1.24676	-1.24862	-166.589	-0.462955	37	0.63376	0.208007	-1.88238
2	0	0	1	381.956	-1.24343	-1.24584	-162.828	-0.5178	37	0.632049	0.202858	-1.87789
2	0	0	1	382.29	-1.24009	-1.23881	-158.947	-0.57137	37	0.630797	0.196905	-1.86961
2	0	0	1	382.623	-1.23676	-1.23929	-155.225	-0.623655	37	0.628911	0.192369	-1.8682
2	0	0	1	382.956	-1.23343	-1.2326	-151.466	-0.674689	37	0.627749	0.186697	-1.86035
2	0	0	1	383.29	-1.23009	-1.23037	-147.875	-0.724519	37	0.625935	0.18194	-1.8563
2	0	0	1	383.623	-1.22676	-1.22701	-144.301	-0.773153	37	0.624925	0.17706	-1.85194
2	0	0	1	383.957	-1.22343	-1.2235	-140.614	-0.820574	37	0.623254	0.172041	-1.84676
2	0	0	1	384.29	-1.22009	-1.21936	-137.132	-0.866802	37	0.621677	0.167213	-1.84103
2	0	0	1	384.623	-1.21676	-1.21776	-133.606	-0.911861	37	0.620498	0.162701	-1.83826
2	0	0	1	384.957	-1.21343	-1.21515	-130.238	-0.955758	37	0.618446	0.158259	-1.8336
2	0	0	1	385.29	-1.21009	-1.20789	-126.725	-0.998508	37	0.617129	0.15307	-1.82502
2	0	0	1	385.623	-1.20676	-1.20636	-123.401	-1.04013	37	0.615626	0.148866	-1.82198
2	0	0	1	385.957	-1.20342	-1.20571	-119.955	-1.08062	37	0.614418	0.14463	-1.82012
2	0	0	1	386.29	-1.20009	-1.19937	-116.692	-1.12	37	0.612698	0.139956	-1.81206
2	0	0	1	386.624	-1.19676	-1.19613	-113.398	-1.15828	37	0.611125	0.135639	-1.80726
2	0	0	1	386.957	-1.19342	-1.19467	-110.104	-1.19546	37	0.609822	0.131537	-1.80449
2	0	0	1	387.29	-1.19009	-1.1909	-106.81	-1.23153	37	0.60776	0.1272	-1.79866
2	0	0	1	387.624	-1.18676	-1.18864	-103.675	-1.26654	37	0.605729	0.123232	-1.79436
2	0	0	1	387.957	-1.18342	-1.18342	-100.407	-1.30048	37	0.605038	0.118824	-1.78846
2	0	0	1	388.29	-1.18009	-1.1792	-97.305	-1.33337	37	0.603354	0.114742	-1.78256
2	0	0	1	388.624	-1.17675	-1.17567	-94.1833	-1.36521	37	0.601991	0.110728	-1.77766
2	0	0	1	388.957	-1.17342	-1.17484	-91.0546	-1.39601	37	0.600059	0.106975	-1.7749
2	0	0	1	389.291	-1.17009	-1.17031	-87.9538	-1.42578	37	0.598863	0.102933	-1.76917
2	0	0	1	389.624	-1.16675	-1.1637	-84.9691	-1.45451	37	0.597029	0.0988784	-1.76073
2	0	0	1	389.957	-1.16342	-1.16556	-81.9635	-1.48226	37	0.594755	0.0955335	-1.76032
2	0	0	1	390.291	-1.16009	-1.1599	-78.9934	-1.509	37	0.592848	0.0916243	-1.75275
2	0	0	1	390.624	-1.15675	-1.15931	-75.9619	-1.53475	37	0.592262	0.0880635	-1.75157
2	0	0	1	390.957	-1.15342	-1.15602	-73.0565	-1.55951	37	0.59028	0.0844547	-1.7463
2	0	0	1	391.291	-1.15008	-1.15202	-70.1863	-1.58331	37	0.587943	0.0808558	-1.73996
2	0	0	1	391.624	-1.14675	-1.15472	-67.2899	-1.60614	37	0.586354	0.0777013	-1.74108
2	0	0	1	391.957	-1.14342	-1.14679	-64.4206	-1.62801	37	0.584758	0.0738769	-1.73155
2	0	0	1	392.291	-1.14008	-1.14031	-61.7531	-1.64895	37	0.583689	0.0704178	-1.724
2	0	0	1	392.624	-1.13675	-1.14018	-58.9873	-1.66899	37	0.581389	0.0672564	-1.72157
2	0	0	1	392.958	-1.13342	-1.13533	-56.3112	-1.68812	37	0.579655	0.063932	-1.71499
2	0	0	1	393.291	-1.13008	-1.13525	-53.6781	-1.70637	37	0.578072	0.0609381	-1.71332
2	0	0	1	393.624	-1.12675	-1.12631	-51.0863	-1.72375	37	0.576192	0.0575388	-1.7025
2	0	0	1	393.958	-1.12341	-1.12447	-48.5443	-1.74028	37	0.574677	0.0545864	-1.69914
2	0	0	1	394.308	-1.11992	-1.12014	-45.9847	-1.75669	37	0.572342	0.0515094	-1.69248
2	0	0	1	394.658	-1.11641	-1.11705	-43.448	-1.77226	38	0.57042	0.0485335	-1.68747
2	0	0	1	394.991	-1.11308	-1.11282	-41.0225	-1.78626	38	0.569032	0.0456504	-1.68185
2	0	0	1	395.325	-1.10975	-1.11234	-38.6507	-1.79946	38	0.566661	0.0429925	-1.679
2	0	0	1	395.658	-1.10641	-1.1084	-36.433	-1.81189	38	0.564889	0.0403822	-1.67329
2	0	0	1	395.991	-1.10308	-1.10484	-34.2182	-1.82358	38	0.562287	0.0378057	-1.66713
2	0	0	1	396.325	-1.09975	-1.10012	-32.0414	-1.83453	38	0.560919	0.0352494	-1.66104
2	0	0	1	396.658	-1.09641	-1.0982	-29.9019	-1.84477	38	0.55888	0.0328383	-1.65708
2	0	0	1	396.991	-1.09308	-1.09423	-27.8382	-1.8543	38	0.556725	0.0304616	-1.65096
2	0	0	1	397.325	-1.08974	-1.08978	-25.8411	-1.86316	38	0.554821	0.028161	-1.6446
2	0	0	1	397.658	-1.08641	-1.08495	-23.9468	-1.87138	38	0.552774	0.0259811	-1.63773
2	0	0	1	397.992	-1.08308	-1.08358	-22.0397	-1.87896	38	0.55045	0.0238819	-1.63403
2	0	0	1	398.325	-1.07974	-1.07953	-20.2962	-1.88592	38	0.548131	0.0219103	-1.62766
2	0	0	1	398.658	-1.07641	-1.07729	-18.5277	-1.89231	38	0.545925	0.0199597	-1.62321
2	0	0	1	398.992	-1.07308	-1.07287	-16.8203	-1.89812	38	0.543762	0.018046	-1.61663
2	0	0	1	399.325	-1.06974	-1.06938	-15.1576	-1.90336	38	0.541288	0.0162092	-1.61066
2	0	0	1	399.658	-1.06641	-1.0663	-13.4733	-1.90805	38	0.539358	0.0143666	-1.60566
2	0	0	1	399.992	-1.06307	-1.06692	-11.856	-1.91219	38	0.535718	0.0126494	-1.60264
2	0	0	1	400.325	-1.05974	-1.05928	-10.2545	-1.91579	38	0.532865	0.0108624	-1.59215
2	0	0	1	400.658	-1.05641	-1.0571	-8.67434	-1.91885	38	0.530194	0.00916961	-1.58729
2	0	0	1	400.992	-1.05307	-1.05173	-7.18043	-1.92141	38	0.526466	0.00755187	-1.57819
2	0	0	1	401.325	-1.04974	-1.0511	-5.77953	-1.92349	38	0.522777	0.00607487	-1.57388
2	0	0	1	401.675	-1.04624	-1.04516	-4.27532	-1.92516	38	0.517966	0.00446837	-1.56312
2	0	0	1	402.025	-1.04274	-1.04281	-2.7649	-1.92633	39	0.512346	0.00288328	-1.55516
2	0	0	1	402.359	-1.03941	-1.04097	-1.18803	-1.9269	39	0.504091	0.0012367	-1.54506
2	0	0	1	402.692	-1.03607	-1.03669	0.552839	-1.92693	39	0.492535	-0.000573124	-1.52923
2	1	0	1	403.025	-1.03274	-1.03187	2.48744	-1.92634	39	0.476302	-0.00256673	-1.50818
2	1	0	1	403.359	-1.0294	-1.03148	4.67235	-1.92506	39	0.452807	-0.00481942	-1.48428
2	1	0	1	403.692	-1.02607	-1.02542	7.06881	-1.92301	39	0.424039	-0.0072485	-1.44946
2	1	0	1	404.042	-1.02257	-1.02264	9.83109	-1.91994	39	0.390628	-0.0100536	-1.41327
2	1	0	1	404.392	-1.01907	-1.01909	12.2376	-1.91599	38	0.356316	-0.0124712	-1.37541
2	1	0	1	404.726	-1.01574	-1.01696	13.489	-1.91162	38	0.329902	-0.0137178	-1.34687
2	1	0	1	405.059	-1.0124	-1.01289	12.9209	-1.90715	38	0.312734	-0.0130875	-1.32563
2	1	0	1	405.392	-1.00907	-1.01184	11.0604	-1.9031	38	0.302435	-0.0111913	-1.31427
2	1	0	1	405.726	-1.00573	-1.00274	9.34108	-1.89966	38	0.295909	-0.00936667	-1.29865
2	1	0	1	406.059	-1.0024	-1.00311	8.16154	-1.89669	38	0.291317	-0.00818694	-1.29443
2	1	0	1	406.392	-0.999067	-1.00238	7.49668	-1.89403	38	0.288044	-0.00751455	-1.29043
2	1	0	1	406.726	-0.995735	-0.995685	7.12945	-1.89153	38	0.283992	-0.00709869	-1.27968
2	1	0	1	407.059	-0.992401	-0.993218	6.98319	-1.88912	38	0.28022	-0.00693583	-1.27344
2	1	0	1	407.393	-0.989066	-0.98963	7.01094	-1.88673	38	0.276241	-0.00693823	-1.26587
2	1	0	1	407.726	-0.985732	-0.983499	7.12823	-1.88431	38	0.271928	-0.00701061	-1.25543
2	1	0	1	408.059	-0.982398	-0.981449	7.3692	-1.88183	38	0.268027	-0.0072325	-1.24948
2	1	0	1	408.393	-0.979065	-0.981475	7.67876	-1.87926	38	0.262658	-0.00753651	-1.24413
2	1	0	1	408.726	-0.975731	-0.974513	8.07046	-1.87658	38	0.257458	-0.00786477	-1.23197
2	1	0	1	409.059	-0.972399	-0.969541	8.5578	-1.87375	38	0.251202	-0.00829714	-1.22074
2	1	0	1	409.393	-0.969065	-0.970197	9.12552	-1.87074	38	0.24275	-0.00885355	-1.21295
2	1	0	1	409.726	-0.96573	-0.966066	9.76904	-1.86753	38	0.230327	-0.00943754	-1.19639
2	1	0	1	410.06	-0.962396	-0.962406	10.4423	-1.8641	38	0.193462	-0.0100497	-1.15587
2	1	0	1	410.393	-0.959062	-0.963321	11.1024	-1.86046	38	0.0767866	-0.0106951	-1.04011
2	1	0	1	410.726	-0.955729	-0.955921	11.9759	-1.85655	38	-0.166909	-0.0114481	-0.789012
2	1	0	1	411.06	-0.952396	-0.955008	12.8833	-1.85235	38	-0.730392	-0.0123036	-0.224616
2	1	0	1	411.26	-0.950395	-0.947401	13.2837	-1.84973	38	-0.83501	-0.012585	-0.112392
2	1	0	1	411.283	-0.949895	-0.944622	13.2984	-1.84942	38	-0.841523	-0.0125619	-0.103099
2	0	0	0	505.48	-1.2706	-1.27006	-203.834	-0.00725335	37	0.643757	0.258882	-1.91382
2	0	0	1	505.663	-1.26877	-1.26914	-200.631	-0.0440773	37	0.642089	0.254629	-1.91123
2	0	0	1	505.997	-1.26543	-1.26684	-196.586	-0.110193	37	0.640994	0.249043	-1.90783
2	0	0	1	506.33	-1.2621	-1.26077	-192.553	-0.174961	37	0.639198	0.242765	-1.89997
2	0	0	1	506.663	-1.25876	-1.25753	-188.504	-0.23836	37	0.637907	0.237051	-1.89544
2	0	0	1	506.997	-1.25543	-1.25693	-184.519	-0.300421	37	0.635922	0.231926	-1.89285
2	0	0	1	507.33	-1.2521	-1.25263	-180.583	-0.36118	37	0.634934	0.226203	-1.88756
2	0	0	1	507.663	-1.24876	-1.24846	-176.618	-0.420625	37	0.634114	0.2205	-1.88257
2	0	0	1	507.997	-1.24543	-1.24591	-172.76	-0.478766	37	0.6318	0.215244	-1.87771
2	0	0	1	508.33	-1.24209	-1.24416	-168.972	-0.535634	37	0.630811	0.210228	-1.87497
2	0	0	1	508.664	-1.23876	-1.23913	-165.183	-0.591233	37	0.628725	0.204683	-1.86785
2	0	0	1	508.997	-1.23543	-1.23671	-161.41	-0.645554	37	0.627896	0.199617	-1.8646
2	0	0	1	509.33	-1.23209	-1.23155	-157.697	-0.698628	37	0.625894	0.194212	-1.85744
2	0	0	1	509.664	-1.22876	-1.22847	-153.864	-0.750466	37	0.62518	0.189017	-1.85365
2	0	0	1	509.997	-1.22543	-1.22746	-150.215	-0.801059	37	0.623689	0.184383	-1.85115
2	0	0	1	510.33	-1.22209	-1.22095	-146.568	-0.850434	37	0.622114	0.178951	-1.84306
2	0	0	1	510.664	-1.21876	-1.21901	-143.005	-0.898611	37	0.621004	0.174324	-1.84001
2	0	0	1	510.997	-1.21543	-1.21263	-139.43	-0.945591	37	0.619224	0.169078	-1.83186
2	0	0	1	511.33	-1.21209	-1.21075	-135.892	-0.99137	37	0.617466	0.164532	-1.82822
2	0	0	1	511.664	-1.20876	-1.20847	-132.328	-1.03597	37	0.616404	0.159915	-1.82488
2	0	0	1	511.997	-1.20543	-1.20639	-128.789	-1.0794	37	0.614146	0.155369	-1.82054
2	0	0	1	512.331	-1.20209	-1.20249	-125.392	-1.12167	37	0.612897	0.150782	-1.81538
2	0	0	1	512.664	-1.19876	-1.19648	-121.797	-1.16278	37	0.611216	0.145728	-1.80769
2	0	0	1	512.997	-1.19542	-1.19804	-118.432	-1.20274	37	0.610546	0.141886	-1.80858
2	0	0	1	513.331	-1.19209	-1.19213	-115.04	-1.24157	37	0.608393	0.137143	-1.80052
2	0	0	1	513.664	-1.18876	-1.18892	-111.716	-1.27926	37	0.606698	0.132821	-1.79562
2	0	0	1	513.997	-1.18542	-1.1866	-108.306	-1.31583	37	0.605005	0.128517	-1.79161
2	0	0	1	514.331	-1.18209	-1.17958	-104.902	-1.35128	37	0.603378	0.123741	-1.78296
2	0	0	1	514.664	-1.17875	-1.18104	-101.612	-1.38561	37	0.601687	0.120008	-1.78272
2	0	0	1	514.998	-1.17542	-1.17604	-98.2381	-1.41883	37	0.600302	0.115531	-1.77634
2	0	0	1	515.331	-1.17209	-1.17399	-94.9692	-1.45095	37	0.598564	0.111493	-1.77256
2	0	0	1	515.664	-1.16875	-1.1692	-91.7998	-1.482	37	0.597373	0.107332	-1.76657
2	0	0	1	515.998	-1.16542	-1.16704	-88.5802	-1.51197	37	0.595486	0.103377	-1.76253
2	0	0	1	516.331	-1.16209	-1.16188	-85.4023	-1.54088	37	0.593835	0.0992269	-1.75571
2	0	0	1	516.664	-1.15875	-1.15883	-82.2699	-1.56875	37	0.592208	0.0953366	-1.75103
2	0	0	1	516.998	-1.15542	-1.15474	-79.1463	-1.59557	37	0.5908	0.0913933	-1.74554
2	0	0	1	517.331	-1.15209	-1.15192	-76.0844	-1.62136	37	0.588518	0.0876427	-1.74043
2	0	0	1	517.665	-1.14875	-1.15014	-72.9903	-1.64612	37	0.586816	0.083949	-1.73696
2	0	0	1	517.998	-1.14542	-1.14466	-70.0157	-1.66988	37	0.585053	0.0801439	-1.72971
2	0	0	1	518.331	-1.14208	-1.14512	-67.0021	-1.69263	37	0.583254	0.0767251	-1.72837
2	0	0	1	518.665	-1.13875	-1.13794	-64.067	-1.71439	37	0.581093	0.0729045	-1.71904
2	0	0	1	518.998	-1.13542	-1.138	-61.1537	-1.73519	37	0.580444	0.0695932	-1.71845
2	0	0	1	519.331	-1.13208	-1.13288	-58.3805	-1.75504	37	0.577897	0.0661384	-1.71078
2	0	0	1	519.665	-1.12875	-1.12721	-55.5799	-1.77396	37	0.576626	0.0626505	-1.70384
2	0	0	1	519.998	-1.12542	-1.13121	-52.8727	-1.79197	37	0.573985	0.0598104	-1.7052
2	0	0	1	520.332	-1.12208	-1.12244	-50.1567	-1.80907	37	0.573067	0.0562978	-1.6955
2	0	0	1	520.665	-1.11875	-1.12014	-47.5395	-1.82527	37	0.570645	0.0532511	-1.69079
2	0	0	1	521.015	-1.11525	-1.11762	-44.7514	-1.84134	37	0.568574	0.0500153	-1.6862
2	0	0	1	521.365	-1.11175	-1.10915	-42.1834	-1.85652	38	0.566315	0.0467878	-1.67547
2	0	0	1	521.698	-1.10841	-1.10801	-39.6969	-1.8701	38	0.564781	0.0439847	-1.67279
2	0	0	1	522.032	-1.10508	-1.10399	-37.3183	-1.88287	38	0.562356	0.0411988	-1.66634
2	0	0	1	522.365	-1.10175	-1.09839	-34.951	-1.89485	38	0.560846	0.0383899	-1.65924
2	0	0	1	522.698	-1.09841	-1.09232	-32.6627	-1.90606	38	0.558519	0.0356781	-1.65084
2	0	0	1	523.032	-1.09508	-1.09432	-30.4006	-1.91651	38	0.556886	0.0332678	-1.6512
2	0	0	1	523.365	-1.09174	-1.09309	-28.215	-1.92622	38	0.554735	0.0308414	-1.64782
2	0	0	1	523.699	-1.08841	-1.09109	-26.1386	-1.93522	38	0.552224	0.0285196	-1.64332
2	0	0	1	524.032	-1.08508	-1.08543	-24.103	-1.94354	38	0.550065	0.026162	-1.63549
2	0	0	1	524.365	-1.08174	-1.07983	-22.0901	-1.95118	38	0.547807	0.0238535	-1.62763
2	0	0	1	524.699	-1.07841	-1.07803	-20.1813	-1.95817	38	0.545604	0.021756	-1.62363
2	0	0	1	525.032	-1.07508	-1.07732	-18.3344	-1.96453	38	0.543068	0.0197519	-1.62038
2	0	0	1	525.365	-1.07174	-1.07227	-16.5309	-1.97029	38	0.540883	0.0177256	-1.61315
2	0	0	1	525.699	-1.06841	-1.06831	-14.7311	-1.97544	38	0.538264	0.0157375	-1.60658
2	0	0	1	526.032	-1.06508	-1.06487	-12.9842	-1.98001	38	0.535441	0.0138265	-1.60031
2	0	0	1	526.366	-1.06174	-1.05936	-11.2547	-1.984	38	0.533007	0.0119227	-1.59236
2	0	0	1	526.699	-1.05841	-1.05791	-9.59112	-1.98742	38	0.529208	0.0101465	-1.58712
2	0	0	1	527.032	-1.05507	-1.0568	-8.02547	-1.9903	38	0.526127	0.0084813	-1.58292
2	0	0	1	527.366	-1.05174	-1.05263	-6.57427	-1.99268	38	0.522285	0.00692028	-1.57492
2	0	0	1	527.716	-1.04824	-1.0482	-5.07784	-1.99465	38	0.518051	0.00532258	-1.56625
2	0	0	1	528.066	-1.04474	-1.04625	-3.58357	-1.99613	39	0.513059	0.0037493	-1.55931
2	0	0	1	528.399	-1.04141	-1.0427	-2.04263	-1.99701	39	0.506568	0.00212985	-1.54927
2	0	0	1	528.732	-1.03807	-1.03719	-0.382827	-1.99737	39	0.496894	0.000397066	-1.53409
2	1	0	1	529.066	-1.03474	-1.03566	1.45817	-1.99713	39	0.482971	-0.00151016	-1.51863
2	1	0	1	529.399	-1.03141	-1.03144	3.56304	-1.99624	39	0.463604	-0.00367508	-1.49505
2	1	0	1	529.733	-1.02807	-1.03083	5.97163	-1.99459	39	0.437395	-0.00615572	-1.46822
2	1	0	1	530.066	-1.02474	-1.02581	8.65404	-1.99209	39	0.405688	-0.00887742	-1.4315
2	1	0	1	530.399	-1.0214	-1.02145	11.2429	-1.98868	38	0.371932	-0.011484	-1.39338
2	1	0	1	530.733	-1.01807	-1.01909	13.1728	-1.98455	38	0.34134	-0.0134242	-1.36043
2	1	0	1	531.066	-1.01474	-1.01459	13.6038	-1.98003	38	0.319206	-0.0138023	-1.3338
2	1	0	1	531.399	-1.0114	-1.01272	12.2529	-1.97567	38	0.304923	-0.0124088	-1.31764
2	1	0	1	531.733	-1.00807	-1.00808	10.241	-1.97189	38	0.29787	-0.0103238	-1.30595
2	1	0	1	532.066	-1.00473	-1.00586	8.70253	-1.96871	38	0.293184	-0.00875349	-1.29904
2	1	0	1	532.4	-1.0014	-1.00136	7.73935	-1.96593	38	0.29002	-0.00774987	-1.29138
2	1	0	1	532.733	-0.998067	-0.998403	7.20555	-1.9634	38	0.286546	-0.00719405	-1.28495
2	1	0	1	533.066	-0.994733	-0.995804	6.93448	-1.961	38	0.283271	-0.00690538	-1.27907
2	1	0	1	533.4	-0.9914	-0.991467	6.85089	-1.95865	38	0.279987	-0.00679243	-1.27145
2	1	0	1	533.733	-0.988067	-0.98842	6.90595	-1.95631	38	0.27638	-0.00682598	-1.2648
2	1	0	1	534.066	-0.984733	-0.984812	7.06802	-1.95393	38	0.272951	-0.00696067	-1.25776
2	1	0	1	534.4	-0.981399	-0.982003	7.35719	-1.95147	38	0.268601	-0.00722478	-1.2506
2	1	0	1	534.733	-0.978065	-0.977112	7.70384	-1.9489	38	0.264151	-0.00752752	-1.24126
2	1	0	1	535.067	-0.974731	-0.975615	8.15888	-1.9462	38	0.259147	-0.00795993	-1.23476
2	1	0	1	535.4	-0.971397	-0.971585	8.69165	-1.94333	38	0.253653	-0.00844467	-1.22524
2	1	0	1	535.733	-0.968064	-0.967872	9.29401	-1.94028	38	0.246073	-0.00899541	-1.21394
2	1	0	1	536.067	-0.964731	-0.966785	9.96349	-1.937	38	0.233522	-0.00963256	-1.20031
2	1	0	1	536.4	-0.961397	-0.962868	10.5929	-1.93351	38	0.193284	-0.0101996	-1.15615
2	1	0	1	536.733	-0.958063	-0.958135	11.2703	-1.92981	38	0.065403	-0.0107985	-1.02354
2	1	0	1	537.067	-0.954729	-0.952196	12.1809	-1.92583	38	-0.22816	-0.0115986	-0.724035
2	1	0	1	537.383	-0.951562	-0.948896	13.054	-1.92178	38	-0.763129	-0.0123869	-0.185766
2	1	0	1	537.523	-0.949895	-0.957156	14.0284	-1.91992	38	-0.827569	-0.0134274	-0.129586
2	0	0	0	631.687	-1.26526	-1.2845	-207.412	-0.00738837	37	0.643147	0.26642	-1.92765
2	0	0	1	631.871	-1.26343	-1.26568	-203.751	-0.0447967	37	0.643153	0.257883	-1.90883
2	0	0	1	632.204	-1.2601	-1.26018	-199.613	-0.111948	37	0.641135	0.251548	-1.90131
2	0	0	1	632.537	-1.25676	-1.25898	-195.331	-0.177701	37	0.639938	0.245917	-1.89891
2	0	0	1	632.871	-1.25343	-1.25269	-191.311	-0.242054	37	0.63847	0.239653	-1.89116
2	0	0	1	633.204	-1.2501	-1.25132	-187.266	-0.305067	37	0.637364	0.23433	-1.88869
2	0	0	1	633.537	-1.24676	-1.25036	-183.4	-0.366781	37	0.635903	0.229316	-1.88626
2	0	0	1	633.871	-1.24343	-1.24407	-179.406	-0.427182	37	0.634026	0.223195	-1.8781
2	0	0	1	634.204	-1.2401	-1.24077	-175.519	-0.486268	37	0.633046	0.217778	-1.87381
2	0	0	1	634.538	-1.23676	-1.23576	-171.593	-0.544052	37	0.631244	0.212047	-1.867
2	0	0	1	634.871	-1.23343	-1.23655	-167.652	-0.600521	37	0.629476	0.20731	-1.86602
2	0	0	1	635.204	-1.23009	-1.23017	-163.737	-0.65567	37	0.628138	0.201423	-1.8583
2	0	0	1	635.538	-1.22676	-1.22647	-159.901	-0.709533	37	0.626659	0.196115	-1.85313
2	0	0	1	635.871	-1.22343	-1.22298	-156.099	-0.762139	37	0.625212	0.190906	-1.84819
2	0	0	1	636.204	-1.22009	-1.22121	-152.361	-0.813484	37	0.62329	0.186065	-1.8445
2	0	0	1	636.538	-1.21676	-1.21733	-148.633	-0.863589	37	0.622603	0.180935	-1.83993
2	0	0	1	636.871	-1.21343	-1.21409	-144.894	-0.912453	37	0.620841	0.175915	-1.83494
2	0	0	1	637.205	-1.21009	-1.21048	-141.18	-0.960074	37	0.619216	0.170897	-1.8297
2	0	0	1	637.538	-1.20676	-1.20695	-137.486	-1.00644	37	0.617148	0.16594	-1.8241
2	0	0	1	637.871	-1.20343	-1.20423	-133.833	-1.05158	37	0.616	0.161166	-1.82024
2	0	0	1	638.205	-1.20009	-1.20003	-130.118	-1.09551	37	0.614554	0.156146	-1.81458
2	0	0	1	638.538	-1.19676	-1.19596	-126.577	-1.13824	37	0.612359	0.151381	-1.80831
2	0	0	1	638.871	-1.19342	-1.19291	-123.003	-1.17977	37	0.611388	0.146732	-1.8043
2	0	0	1	639.205	-1.19009	-1.1913	-119.393	-1.22012	37	0.609616	0.142233	-1.80092
2	0	0	1	639.538	-1.18676	-1.18713	-115.858	-1.25927	37	0.607921	0.137538	-1.79505
2	0	0	1	639.871	-1.18342	-1.1824	-112.356	-1.29723	37	0.606248	0.13285	-1.78865
2	0	0	1	640.205	-1.18009	-1.18293	-108.831	-1.33404	37	0.604652	0.128739	-1.78758
2	0	0	1	640.538	-1.17676	-1.1791	-105.356	-1.36966	37	0.602605	0.124226	-1.78171
2	0	0	1	640.872	-1.17342	-1.17367	-101.904	-1.40415	37	0.601324	0.119603	-1.775
2	0	0	1	641.205	-1.17009	-1.16988	-98.4675	-1.43748	37	0.600465	0.115195	-1.77034
2	0	0	1	641.538	-1.16675	-1.16901	-95.1017	-1.46968	37	0.598199	0.111175	-1.76721
2	0	0	1	641.872	-1.16342	-1.16179	-91.6699	-1.50074	37	0.596404	0.106501	-1.7582
2	0	0	1	642.205	-1.16009	-1.16525	-88.2816	-1.53065	37	0.594331	0.102871	-1.75959
2	0	0	1	642.538	-1.15675	-1.1588	-84.913	-1.55945	37	0.592672	0.098397	-1.75147
2	0	0	1	642.872	-1.15342	-1.15298	-81.6285	-1.58714	37	0.590999	0.094116	-1.74398
2	0	0	1	643.205	-1.15009	-1.15228	-78.4077	-1.61374	37	0.589966	0.0903477	-1.74225
2	0	0	1	643.539	-1.14675	-1.14692	-75.1924	-1.63927	37	0.587707	0.0862393	-1.73462
2	0	0	1	643.872	-1.14342	-1.14662	-72.0333	-1.66374	37	0.585609	0.0825948	-1.73223
2	0	0	1	644.205	-1.14008	-1.13866	-68.954	-1.68717	37	0.583992	0.0785148	-1.72265
2	0	0	1	644.539	-1.13675	-1.13681	-65.86	-1.70956	37	0.581473	0.0748702	-1.71828
2	0	0	1	644.872	-1.13342	-1.13352	-62.8382	-1.73094	37	0.580544	0.0712282	-1.71406
2	0	0	1	645.205	-1.13008	-1.12897	-59.9511	-1.75133	37	0.578539	0.067683	-1.70751
2	0	0	1	645.539	-1.12675	-1.12641	-57.0072	-1.77075	37	0.576274	0.0642135	-1.70268
2	0	0	1	645.872	-1.12342	-1.12064	-54.057	-1.78919	37	0.574254	0.0605784	-1.69489
2	0	0	1	646.206	-1.12008	-1.11842	-51.2834	-1.80667	37	0.572236	0.0573562	-1.69065
2	0	0	1	646.539	-1.11675	-1.1152	-48.4633	-1.82322	37	0.570811	0.0540465	-1.68601
2	0	0	1	646.889	-1.11325	-1.11577	-45.7375	-1.83959	37	0.567811	0.0510323	-1.68358
2	0	0	1	647.239	-1.10975	-1.11024	-42.9156	-1.85504	38	0.565463	0.0476466	-1.6757
2	0	0	1	647.572	-1.10641	-1.10495	-40.2981	-1.86883	38	0.564394	0.0445273	-1.66934
2	0	0	1	647.906	-1.10308	-1.10214	-37.7624	-1.88176	38	0.561872	0.0416192	-1.66401
2	0	0	1	648.239	-1.09975	-1.10466	-35.2749	-1.89386	38	0.559994	0.0389667	-1.66465
2	0	0	1	648.572	-1.09641	-1.09357	-32.869	-1.90513	38	0.557926	0.0359445	-1.65149
2	0	0	1	648.906	-1.09308	-1.09158	-30.5165	-1.91562	38	0.556425	0.0333113	-1.64801
2	0	0	1	649.239	-1.08975	-1.09107	-28.2034	-1.92532	38	0.553148	0.0307718	-1.64421
2	0	0	1	649.573	-1.08641	-1.08976	-26.0528	-1.93429	38	0.551114	0.0283913	-1.64088
2	0	0	1	649.906	-1.08308	-1.08453	-23.8706	-1.94253	38	0.549016	0.0258884	-1.63355
2	0	0	1	650.239	-1.07974	-1.08108	-21.6057	-1.95003	38	0.546602	0.0233574	-1.62768
2	0	0	1	650.573	-1.07641	-1.08328	-19.5622	-1.95681	38	0.543715	0.0211913	-1.62699
2	0	0	1	650.906	-1.07308	-1.0732	-17.6554	-1.96293	38	0.541186	0.0189478	-1.61439
2	0	0	1	651.239	-1.06974	-1.06864	-15.7395	-1.96842	38	0.538851	0.0168198	-1.60749
2	0	0	1	651.573	-1.06641	-1.06679	-13.8247	-1.97327	38	0.535708	0.0147481	-1.6025
2	0	0	1	651.906	-1.06308	-1.06562	-12.0045	-1.9775	38	0.532807	0.0127922	-1.59843
2	0	0	1	652.24	-1.05974	-1.06051	-10.3012	-1.98114	38	0.529725	0.0109245	-1.59024
2	0	0	1	652.573	-1.05641	-1.05698	-8.67724	-1.98422	38	0.526286	0.00917167	-1.58327
2	0	0	1	652.906	-1.05307	-1.05405	-7.15059	-1.98678	38	0.522976	0.00753706	-1.57702
2	0	0	1	653.24	-1.04974	-1.05061	-5.70375	-1.98885	38	0.518916	0.00599241	-1.56953
2	0	0	1	653.59	-1.04624	-1.04596	-4.16119	-1.99049	38	0.514176	0.00435244	-1.56013
2	0	0	1	653.94	-1.04274	-1.04296	-2.58465	-1.99161	39	0.507903	0.00269569	-1.55086
2	0	0	1	654.273	-1.0394	-1.04031	-0.946857	-1.99212	39	0.49986	0.000985024	-1.54017
2	0	0	1	654.607	-1.03607	-1.0358	0.870783	-1.99205	39	0.488026	-0.000901953	-1.52382
2	1	0	1	654.94	-1.03274	-1.03236	2.9303	-1.99134	39	0.470364	-0.00302514	-1.50273
2	1	0	1	655.273	-1.02941	-1.02992	5.30761	-1.98988	39	0.446431	-0.00546642	-1.47635
2	1	0	1	655.607	-1.02607	-1.02689	7.97908	-1.98758	39	0.416846	-0.00819361	-1.44373
2	1	0	1	655.957	-1.02257	-1.02249	10.7793	-1.98417	39	0.38085	-0.0110217	-1.40334
2	1	0	1	656.307	-1.01907	-1.01858	13.0173	-1.97992	38	0.34644	-0.0132592	-1.36502
2	1	0	1	656.64	-1.01574	-1.0169	13.8391	-1.97536	38	0.323331	-0.0140729	-1.34023
2	1	0	1	656.973	-1.0124	-1.01311	12.8838	-1.97084	38	0.306894	-0.0130527	-1.32
2	1	0	1	657.307	-1.00907	-1.00783	10.8596	-1.96683	38	0.298873	-0.0109446	-1.3067
2	1	0	1	657.64	-1.00574	-1.00698	9.16173	-1.96345	38	0.294451	-0.00922566	-1.30143
2	1	0	1	657.974	-1.0024	-1.00202	8.03047	-1.96053	38	0.291156	-0.00804668	-1.29317
2	1	0	1	658.307	-0.999067	-1.00055	7.39088	-1.9579	38	0.288735	-0.00739495	-1.28929
2	1	0	1	658.64	-0.995733	-0.995678	7.05681	-1.95543	38	0.285364	-0.00702632	-1.28104
2	1	0	1	658.974	-0.9924	-0.992844	6.94241	-1.95303	38	0.282495	-0.00689273	-1.27534
2	1	0	1	659.307	-0.989067	-0.98959	6.95193	-1.95065	38	0.278992	-0.00687956	-1.26858
2	1	0	1	659.64	-0.985733	-0.986206	7.09625	-1.94823	38	0.275958	-0.00699836	-1.26216
2	1	0	1	659.974	-0.982399	-0.98044	7.35243	-1.94576	38	0.271711	-0.00720861	-1.25215
2	1	0	1	660.307	-0.979065	-0.978707	7.68722	-1.94318	38	0.268149	-0.00752354	-1.24686
2	1	0	1	660.641	-0.975731	-0.976329	8.10225	-1.94048	38	0.263734	-0.00791046	-1.24006
2	1	0	1	660.974	-0.972397	-0.972709	8.61576	-1.93762	38	0.259442	-0.00838063	-1.23215
2	1	0	1	661.307	-0.969064	-0.971196	9.18704	-1.93458	38	0.253309	-0.00892242	-1.22451
2	1	0	1	661.641	-0.965731	-0.96705	9.78817	-1.93134	38	0.245444	-0.00946565	-1.21249
2	1	0	1	661.974	-0.962397	-0.964217	10.421	-1.9279	38	0.230317	-0.0100481	-1.19453
2	1	0	1	662.307	-0.959063	-0.962604	11.0319	-1.92425	38	0.166159	-0.0106194	-1.12876
2	1	0	1	662.641	-0.955729	-0.956147	11.6833	-1.92039	38	0.00389477	-0.0111709	-0.960042
2	1	0	1	662.974	-0.952395	-0.953651	12.5388	-1.91628	38	-0.448745	-0.0119576	-0.504906
2	1	0	0	663.174	-0.950395	-0.954121	12.9544	-1.91371	38	-0.772692	-0.0123601	-0.181428
2	1	0	0	663.197	-0.949895	-0.951693	13.3969	-1.9134	38	-0.788475	-0.0127497	-0.163218
2	0	0	0	757.228	-1.2636	-1.26568	-211.947	-0.00754541	37	0.64397	0.268257	-1.90965
2	0	0	1	757.411	-1.26176	-1.26266	-207.59	-0.045652	37	0.641779	0.262116	-1.90444
2	0	0	1	757.745	-1.25843	-1.25969	-203.428	-0.114066	37	0.640087	0.256256	-1.89978
2	0	0	1	758.078	-1.2551	-1.25542	-199.223	-0.18109	37	0.638727	0.250109	-1.89415
2	0	0	1	758.411	-1.25176	-1.25305	-195.174	-0.246722	37	0.636716	0.244562	-1.88976
2	0	0	1	758.745	-1.24843	-1.24951	-191.222	-0.31102	37	0.635947	0.238933	-1.88546
2	0	0	1	759.078	-1.2451	-1.24388	-187.148	-0.374005	37	0.634527	0.23279	-1.87841
2	0	0	1	759.411	-1.24176	-1.24258	-183.133	-0.435639	37	0.632837	0.227559	-1.87542
2	0	0	1	759.745	-1.23843	-1.23964	-179.141	-0.495938	37	0.6315	0.22207	-1.87114
2	0	0	1	760.078	-1.23509	-1.23804	-175.143	-0.554903	37	0.630164	0.216833	-1.8682
2	0	0	1	760.412	-1.23176	-1.23147	-171.302	-0.612561	37	0.628668	0.210953	-1.86014
2	0	0	1	760.745	-1.22843	-1.22897	-167.377	-0.668908	37	0.627516	0.205701	-1.85648
2	0	0	1	761.078	-1.22509	-1.22662	-163.63	-0.723978	37	0.625896	0.200712	-1.85252
2	0	0	1	761.412	-1.22176	-1.2214	-159.769	-0.777796	37	0.624237	0.195142	-1.84564
2	0	0	1	761.745	-1.21843	-1.21765	-155.872	-0.83032	37	0.622782	0.189798	-1.84044
2	0	0	1	762.078	-1.21509	-1.21929	-152.139	-0.881574	37	0.621117	0.185503	-1.84041
2	0	0	1	762.412	-1.21176	-1.21071	-148.219	-0.931551	37	0.619478	0.17945	-1.83019
2	0	0	1	762.745	-1.20842	-1.21073	-144.409	-0.980248	37	0.618524	0.17484	-1.82925
2	0	0	1	763.078	-1.20509	-1.20522	-140.482	-1.02764	37	0.616473	0.169312	-1.82169
2	0	0	1	763.412	-1.20176	-1.19977	-136.867	-1.07378	37	0.615338	0.164208	-1.8151
2	0	0	1	763.745	-1.19842	-1.19838	-133.143	-1.11871	37	0.613285	0.159555	-1.81166
2	0	0	1	764.079	-1.19509	-1.19626	-129.48	-1.1624	37	0.6121	0.154892	-1.80836
2	0	0	1	764.412	-1.19176	-1.19115	-125.724	-1.20486	37	0.610395	0.149756	-1.80154
2	0	0	1	764.745	-1.18842	-1.19067	-122.142	-1.24609	37	0.608432	0.145431	-1.7991
2	0	0	1	765.079	-1.18509	-1.1844	-118.45	-1.28612	37	0.607204	0.140292	-1.7916
2	0	0	1	765.412	-1.18176	-1.17606	-114.878	-1.32492	37	0.605972	0.135104	-1.78204
2	0	0	1	765.745	-1.17842	-1.18087	-111.286	-1.36253	37	0.603969	0.131414	-1.78484
2	0	0	1	766.079	-1.17509	-1.1782	-107.754	-1.39896	37	0.601931	0.126956	-1.78013
2	0	0	1	766.412	-1.17175	-1.17579	-104.196	-1.43421	37	0.600513	0.122513	-1.77631
2	0	0	1	766.746	-1.16842	-1.16984	-100.705	-1.46829	37	0.59906	0.117809	-1.7689
2	0	0	1	767.079	-1.16509	-1.16608	-97.2564	-1.50121	37	0.597344	0.113408	-1.76342
2	0	0	1	767.412	-1.16175	-1.16231	-93.6975	-1.53296	37	0.595817	0.108906	-1.75813
2	0	0	1	767.746	-1.15842	-1.15909	-90.2944	-1.56354	37	0.593818	0.10466	-1.75291
2	0	0	1	768.079	-1.15509	-1.15626	-86.929	-1.593	37	0.592283	0.100513	-1.74854
2	0	0	1	768.412	-1.15175	-1.15372	-83.481	-1.62133	37	0.590465	0.0963137	-1.74419
2	0	0	1	768.746	-1.14842	-1.14861	-80.2006	-1.64853	37	0.58827	0.0921196	-1.73688
2	0	0	1	769.079	-1.14508	-1.14408	-76.8389	-1.67464	37	0.586544	0.0879098	-1.73062
2	0	0	1	769.413	-1.14175	-1.1417	-73.4837	-1.69962	37	0.585117	0.0838962	-1.72681
2	0	0	1	769.746	-1.13842	-1.14047	-70.3293	-1.72352	37	0.582922	0.0802088	-1.7234
2	0	0	1	770.079	-1.13508	-1.13246	-67.0705	-1.74634	37	0.581231	0.0759545	-1.71369
2	0	0	1	770.413	-1.13175	-1.13236	-63.9416	-1.76811	37	0.579173	0.072405	-1.71153
2	0	0	1	770.746	-1.12842	-1.12864	-60.8111	-1.78882	37	0.577126	0.0686336	-1.70576
2	0	0	1	771.079	-1.12508	-1.12566	-57.7842	-1.80852	37	0.575492	0.0650453	-1.70115
2	0	0	1	771.413	-1.12175	-1.12192	-54.7683	-1.82721	37	0.573276	0.0614457	-1.6952
2	0	0	1	771.746	-1.11841	-1.11935	-51.8134	-1.8449	37	0.571329	0.0579973	-1.69068
2	0	0	1	772.08	-1.11508	-1.11518	-48.8777	-1.86162	37	0.569399	0.0545075	-1.68458
2	0	0	1	772.413	-1.11175	-1.11234	-46.0656	-1.87737	37	0.567302	0.0512408	-1.67965
2	0	0	1	772.763	-1.10825	-1.10794	-43.1306	-1.89289	37	0.565067	0.047786	-1.67301
2	0	0	1	773.113	-1.10475	-1.10548	-40.2572	-1.90745	38	0.562721	0.0445034	-1.6682
2	0	0	1	773.446	-1.10141	-1.10142	-37.6362	-1.92036	38	0.560618	0.0414532	-1.66204
2	0	0	1	773.78	-1.09808	-1.09748	-35.0538	-1.93241	38	0.558184	0.0384707	-1.65566
2	0	0	1	774.113	-1.09475	-1.09458	-32.531	-1.94361	38	0.556067	0.0356076	-1.65064
2	0	0	1	774.446	-1.09141	-1.09125	-30.0964	-1.95398	38	0.554211	0.0328429	-1.64547
2	0	0	1	774.78	-1.08808	-1.08941	-27.7853	-1.96357	38	0.551881	0.0302697	-1.6413
2	0	0	1	775.113	-1.08474	-1.08617	-25.4398	-1.97238	38	0.549872	0.0276319	-1.63604
2	0	0	1	775.447	-1.08141	-1.08144	-23.1953	-1.98042	38	0.546626	0.0250843	-1.62806
2	0	0	1	775.78	-1.07808	-1.07668	-21.0441	-1.98773	38	0.544499	0.0226577	-1.62118
2	0	0	1	776.113	-1.07474	-1.07274	-18.971	-1.99434	38	0.541926	0.020351	-1.61467
2	0	0	1	776.447	-1.07141	-1.07131	-16.9404	-2.00026	38	0.539031	0.0181484	-1.61034
2	0	0	1	776.78	-1.06808	-1.06829	-14.9157	-2.00551	38	0.536601	0.0159342	-1.60489
2	0	0	1	777.113	-1.06474	-1.06405	-12.9546	-2.0101	38	0.533574	0.0137843	-1.59762
2	0	0	1	777.447	-1.06141	-1.06395	-11.1156	-2.01405	38	0.530205	0.0118264	-1.59415
2	0	0	1	777.78	-1.05807	-1.05665	-9.363	-2.0174	38	0.526874	0.00989345	-1.58353
2	0	0	1	778.114	-1.05474	-1.05345	-7.74422	-2.0202	38	0.523597	0.00815817	-1.57705
2	0	0	1	778.447	-1.05141	-1.05326	-6.21829	-2.02247	38	0.51942	0.00654946	-1.57268
2	0	0	1	778.797	-1.04791	-1.04861	-4.64423	-2.0243	38	0.514914	0.00487001	-1.56353
2	0	0	1	779.147	-1.04441	-1.04264	-3.07143	-2.02561	39	0.509334	0.0032024	-1.55198
2	0	0	1	779.48	-1.04107	-1.04058	-1.46076	-2.0263	39	0.501568	0.00152004	-1.54215
2	0	0	1	779.814	-1.03774	-1.03788	0.293172	-2.02644	39	0.491019	-0.000304279	-1.5289
2	1	0	1	780.147	-1.0344	-1.03534	2.26424	-2.02596	39	0.475746	-0.00234426	-1.51109
2	1	0	1	780.48	-1.03107	-1.02963	4.50882	-2.02477	39	0.454919	-0.00464243	-1.48455
2	1	0	1	780.814	-1.02774	-1.02978	7.07017	-2.02277	39	0.426851	-0.00728073	-1.45663
2	1	0	1	781.147	-1.0244	-1.02443	9.8205	-2.01988	39	0.393197	-0.0100604	-1.41763
2	1	0	1	781.481	-1.02107	-1.02389	12.334	-2.01611	38	0.35926	-0.0126287	-1.38315
2	1	0	1	781.814	-1.01774	-1.01655	14.037	-2.01165	38	0.331651	-0.0142693	-1.3482
2	1	0	1	782.147	-1.0144	-1.01417	14.2225	-2.00688	38	0.311286	-0.014424	-1.32546
2	1	0	1	782.481	-1.01107	-1.0113	12.7327	-2.00235	38	0.299907	-0.0128765	-1.3112
2	1	0	1	782.814	-1.00774	-1.009	10.6336	-1.99843	38	0.29461	-0.0107293	-1.30361
2	1	0	1	783.147	-1.0044	-1.00385	9.05621	-1.99511	38	0.291212	-0.00909107	-1.29506
2	1	0	1	783.481	-1.00107	-1.00223	8.06483	-1.99223	38	0.288228	-0.00808278	-1.29045
2	1	0	1	783.814	-0.997734	-0.998959	7.49805	-1.98959	38	0.285697	-0.00749024	-1.28466
2	1	0	1	784.148	-0.9944	-0.994865	7.22073	-1.98709	38	0.282601	-0.00718365	-1.27747
2	1	0	1	784.481	-0.991066	-0.991901	7.12304	-1.98466	38	0.279328	-0.00706535	-1.27123
2	1	0	1	784.814	-0.987732	-0.990033	7.16768	-1.98222	38	0.277218	-0.00709624	-1.26725
2	1	0	1	785.148	-0.984399	-0.985321	7.32566	-1.97976	38	0.274078	-0.00721813	-1.2594
2	1	0	1	785.481	-0.981066	-0.982412	7.59365	-1.97722	38	0.269825	-0.00746009	-1.25224
2	1	0	1	785.814	-0.977732	-0.977925	7.9321	-1.97458	38	0.265996	-0.007757	-1.24392
2	1	0	1	786.148	-0.974398	-0.974185	8.37925	-1.9718	38	0.261947	-0.00816294	-1.23613
2	1	0	1	786.481	-0.971064	-0.973548	8.88915	-1.96887	38	0.257599	-0.00865401	-1.23115
2	1	0	1	786.815	-0.96773	-0.96811	9.44393	-1.96576	38	0.25113	-0.00914276	-1.21924
2	1	0	1	787.148	-0.964396	-0.967212	10.0293	-1.96246	38	0.24162	-0.00970049	-1.20883
2	1	0	1	787.481	-0.961063	-0.961758	10.6091	-1.95896	38	0.212124	-0.0102034	-1.17388
2	1	0	1	787.815	-0.95773	-0.956722	11.1791	-1.95527	38	0.104897	-0.0106953	-1.06162
2	1	0	1	788.148	-0.954396	-0.951819	11.886	-1.95137	38	-0.125815	-0.0113133	-0.826004
2	1	0	1	788.448	-0.951395	-0.951368	12.6496	-1.94764	38	-0.674443	-0.0120345	-0.276925
2	1	0	0	788.571	-0.949895	-0.943144	13.5913	-1.94606	38	-0.78633	-0.0128185	-0.156814